[{"view_history":[{"page_index":0,"viewing_time":2478}],"rt":2479,"trial_type":"instructions","trial_index":0,"time_elapsed":2479,"internal_node_id":"0.0-0.0"},{"view_history":[{"page_index":0,"viewing_time":1581}],"rt":1582,"trial_type":"instructions","trial_index":1,"time_elapsed":4062,"internal_node_id":"0.0-1.0"},{"rt":5165,"response":{"race":"South Asian","gender":"man","age":"1","college":"yes"},"trial_type":"survey-html-form","trial_index":2,"time_elapsed":9230,"internal_node_id":"0.0-2.0"},{"rt":2613,"stimulus":"<h2>Rating</h2><p>On a scale from 1–10, how typically successful are you in competitive environments?</p>","slider_start":5,"response":10,"trial_type":"html-slider-response","trial_index":3,"time_elapsed":11845,"internal_node_id":"0.0-3.0"},{"rt":null,"stimulus":"\n        <p style=\"font-size: 20px;\">Loading...</p>\n        <img src=\"experiments/sortablerank/loading.gif\" style=\"width: 100px; height: 100px;\">","response":null,"trial_type":"html-keyboard-response","trial_index":4,"time_elapsed":12848,"internal_node_id":"0.0-4.0"},{"view_history":[{"page_index":0,"viewing_time":1063},{"page_index":1,"viewing_time":717},{"page_index":2,"viewing_time":586}],"rt":2366,"trial_type":"instructions","trial_index":5,"time_elapsed":15214,"internal_node_id":"0.0-5.0"},{"rt":null,"stimulus":"\n        <p style=\"font-size: 20px;\">One moment. We are sorting you into a lobby.</p>\n        <img src=\"experiments/sortablerank/loading.gif\" style=\"width: 100px; height: 100px;\">","response":null,"trial_type":"html-keyboard-response","trial_index":6,"time_elapsed":18215,"internal_node_id":"0.0-6.0"},{"rt":1394,"stimulus":"<div class=\"trial-container\"><div class=\"character-container\">\n            <img src=\"https://raw.githubusercontent.com/githubpsyche/images/main/characters/Age_25-31_female_latino/cdf_LF-225_latino_female_25.jpg\" alt=\"Character latino female\">\n            <div>\n                <p>Race: Latino</p>\n                <p>Sex: Female</p>\n                <p>Age: 25</p>\n            </div>\n        </div><div class=\"character-container\">\n            <img src=\"https://raw.githubusercontent.com/githubpsyche/images/main/characters/Age_39_female_east-asian/cdf_AF-223_east-asian_female_45.jpg\" alt=\"Character east-asian female\">\n            <div>\n                <p>Race: East Asian</p>\n                <p>Sex: Female</p>\n                <p>Age: 45</p>\n            </div>\n        </div></div>","response":1,"left_index":1,"right_index":2,"left_image":"https://raw.githubusercontent.com/githubpsyche/images/main/characters/Age_25-31_female_latino/cdf_LF-225_latino_female_25.jpg","right_image":"https://raw.githubusercontent.com/githubpsyche/images/main/characters/Age_39_female_east-asian/cdf_AF-223_east-asian_female_45.jpg","trial_type":"html-button-response","trial_index":7,"time_elapsed":19612,"internal_node_id":"0.0-7.0","choice":"right","winner":2,"loser":1},{"rt":825,"stimulus":"<div class=\"trial-container\"><div class=\"character-container\">\n            <img src=\"https://raw.githubusercontent.com/githubpsyche/images/main/characters/Age_39_female_south-asian/cdf_IF-714_south-asian_female_46.jpg\" alt=\"Character south-asian female\">\n            <div>\n                <p>Race: South Asian</p>\n                <p>Sex: Female</p>\n                <p>Age: 46</p>\n            </div>\n        </div><div class=\"character-container\">\n            <img src=\"https://raw.githubusercontent.com/githubpsyche/images/main/characters/Age_24_female_south-asian/cdf_IF-608_south-asian_female_22.jpg\" alt=\"Character south-asian female\">\n            <div>\n                <p>Race: South Asian</p>\n                <p>Sex: Female</p>\n                <p>Age: 22</p>\n            </div>\n        </div></div>","response":0,"left_index":3,"right_index":5,"left_image":"https://raw.githubusercontent.com/githubpsyche/images/main/characters/Age_39_female_south-asian/cdf_IF-714_south-asian_female_46.jpg","right_image":"https://raw.githubusercontent.com/githubpsyche/images/main/characters/Age_24_female_south-asian/cdf_IF-608_south-asian_female_22.jpg","trial_type":"html-button-response","trial_index":8,"time_elapsed":20444,"internal_node_id":"0.0-8.0","choice":"left","winner":3,"loser":5},{"rt":766,"stimulus":"<div class=\"trial-container\"><div class=\"character-container\">\n            <img src=\"https://raw.githubusercontent.com/githubpsyche/images/main/characters/Age_32-38_female_black/cdf_BF-220_black_female_33.jpg\" alt=\"Character black female\">\n            <div>\n                <p>Race: Black</p>\n                <p>Sex: Female</p>\n                <p>Age: 33</p>\n            </div>\n        </div><div class=\"character-container\">\n            <img src=\"https://raw.githubusercontent.com/githubpsyche/images/main/characters/Age_32-38_female_white/cdf_WF-241_white_female_33.jpg\" alt=\"Character white female\">\n            <div>\n                <p>Race: White</p>\n                <p>Sex: Female</p>\n                <p>Age: 33</p>\n            </div>\n        </div></div>","response":1,"left_index":0,"right_index":8,"left_image":"https://raw.githubusercontent.com/githubpsyche/images/main/characters/Age_32-38_female_black/cdf_BF-220_black_female_33.jpg","right_image":"https://raw.githubusercontent.com/githubpsyche/images/main/characters/Age_32-38_female_white/cdf_WF-241_white_female_33.jpg","trial_type":"html-button-response","trial_index":9,"time_elapsed":21212,"internal_node_id":"0.0-9.0","choice":"right","winner":8,"loser":0},{"rt":648,"stimulus":"<div class=\"trial-container\"><div class=\"character-container\">\n            <img src=\"https://raw.githubusercontent.com/githubpsyche/images/main/characters/Age_39_female_east-asian/cdf_AF-223_east-asian_female_45.jpg\" alt=\"Character east-asian female\">\n            <div>\n                <p>Race: East Asian</p>\n                <p>Sex: Female</p>\n                <p>Age: 45</p>\n            </div>\n        </div><div class=\"character-container\">\n            <img src=\"https://raw.githubusercontent.com/githubpsyche/images/main/characters/Age_39_female_south-asian/cdf_IF-714_south-asian_female_46.jpg\" alt=\"Character south-asian female\">\n            <div>\n                <p>Race: South Asian</p>\n                <p>Sex: Female</p>\n                <p>Age: 46</p>\n            </div>\n        </div></div>","response":0,"left_index":2,"right_index":3,"left_image":"https://raw.githubusercontent.com/githubpsyche/images/main/characters/Age_39_female_east-asian/cdf_AF-223_east-asian_female_45.jpg","right_image":"https://raw.githubusercontent.com/githubpsyche/images/main/characters/Age_39_female_south-asian/cdf_IF-714_south-asian_female_46.jpg","trial_type":"html-button-response","trial_index":10,"time_elapsed":21862,"internal_node_id":"0.0-10.0","choice":"left","winner":2,"loser":3},{"rt":534,"stimulus":"<div class=\"trial-container\"><div class=\"character-container\">\n            <img src=\"https://raw.githubusercontent.com/githubpsyche/images/main/characters/Age_25-31_female_latino/cdf_LF-225_latino_female_25.jpg\" alt=\"Character latino female\">\n            <div>\n                <p>Race: Latino</p>\n                <p>Sex: Female</p>\n                <p>Age: 25</p>\n            </div>\n        </div><div class=\"character-container\">\n            <img src=\"https://raw.githubusercontent.com/githubpsyche/images/main/characters/Age_25-31_male_white/cdf_WM-203_white_male_29.jpg\" alt=\"Character white male\">\n            <div>\n                <p>Race: White</p>\n                <p>Sex: Male</p>\n                <p>Age: 29</p>\n            </div>\n        </div></div>","response":1,"left_index":1,"right_index":6,"left_image":"https://raw.githubusercontent.com/githubpsyche/images/main/characters/Age_25-31_female_latino/cdf_LF-225_latino_female_25.jpg","right_image":"https://raw.githubusercontent.com/githubpsyche/images/main/characters/Age_25-31_male_white/cdf_WM-203_white_male_29.jpg","trial_type":"html-button-response","trial_index":11,"time_elapsed":22398,"internal_node_id":"0.0-11.0","choice":"right","winner":6,"loser":1},{"rt":662,"stimulus":"<div class=\"trial-container\"><div class=\"character-container\">\n            <img src=\"https://raw.githubusercontent.com/githubpsyche/images/main/characters/Age_39_female_south-asian/cdf_IF-714_south-asian_female_46.jpg\" alt=\"Character south-asian female\">\n            <div>\n                <p>Race: South Asian</p>\n                <p>Sex: Female</p>\n                <p>Age: 46</p>\n            </div>\n        </div><div class=\"character-container\">\n            <img src=\"https://raw.githubusercontent.com/githubpsyche/images/main/characters/Age_39_female_latino/cdf_LF-238_latino_female_42.jpg\" alt=\"Character latino female\">\n            <div>\n                <p>Race: Latino</p>\n                <p>Sex: Female</p>\n                <p>Age: 42</p>\n            </div>\n        </div></div>","response":0,"left_index":3,"right_index":7,"left_image":"https://raw.githubusercontent.com/githubpsyche/images/main/characters/Age_39_female_south-asian/cdf_IF-714_south-asian_female_46.jpg","right_image":"https://raw.githubusercontent.com/githubpsyche/images/main/characters/Age_39_female_latino/cdf_LF-238_latino_female_42.jpg","trial_type":"html-button-response","trial_index":12,"time_elapsed":23062,"internal_node_id":"0.0-12.0","choice":"left","winner":3,"loser":7},{"rt":565,"stimulus":"<div class=\"trial-container\"><div class=\"character-container\">\n            <img src=\"https://raw.githubusercontent.com/githubpsyche/images/main/characters/Age_39_female_east-asian/cdf_AF-223_east-asian_female_45.jpg\" alt=\"Character east-asian female\">\n            <div>\n                <p>Race: East Asian</p>\n                <p>Sex: Female</p>\n                <p>Age: 45</p>\n            </div>\n        </div><div class=\"character-container\">\n            <img src=\"https://raw.githubusercontent.com/githubpsyche/images/main/characters/Age_39_male_white/cdf_WM-248_white_male_42.jpg\" alt=\"Character white male\">\n            <div>\n                <p>Race: White</p>\n                <p>Sex: Male</p>\n                <p>Age: 42</p>\n            </div>\n        </div></div>","response":1,"left_index":2,"right_index":4,"left_image":"https://raw.githubusercontent.com/githubpsyche/images/main/characters/Age_39_female_east-asian/cdf_AF-223_east-asian_female_45.jpg","right_image":"https://raw.githubusercontent.com/githubpsyche/images/main/characters/Age_39_male_white/cdf_WM-248_white_male_42.jpg","trial_type":"html-button-response","trial_index":13,"time_elapsed":23628,"internal_node_id":"0.0-13.0","choice":"right","winner":4,"loser":2},{"rt":548,"stimulus":"<div class=\"trial-container\"><div class=\"character-container\">\n            <img src=\"https://raw.githubusercontent.com/githubpsyche/images/main/characters/Age_39_female_south-asian/cdf_IF-714_south-asian_female_46.jpg\" alt=\"Character south-asian female\">\n            <div>\n                <p>Race: South Asian</p>\n                <p>Sex: Female</p>\n                <p>Age: 46</p>\n            </div>\n        </div><div class=\"character-container\">\n            <img src=\"https://raw.githubusercontent.com/githubpsyche/images/main/characters/Age_25-31_male_white/cdf_WM-203_white_male_29.jpg\" alt=\"Character white male\">\n            <div>\n                <p>Race: White</p>\n                <p>Sex: Male</p>\n                <p>Age: 29</p>\n            </div>\n        </div></div>","response":0,"left_index":3,"right_index":6,"left_image":"https://raw.githubusercontent.com/githubpsyche/images/main/characters/Age_39_female_south-asian/cdf_IF-714_south-asian_female_46.jpg","right_image":"https://raw.githubusercontent.com/githubpsyche/images/main/characters/Age_25-31_male_white/cdf_WM-203_white_male_29.jpg","trial_type":"html-button-response","trial_index":14,"time_elapsed":24177,"internal_node_id":"0.0-14.0","choice":"left","winner":3,"loser":6},{"rt":600,"stimulus":"<div class=\"trial-container\"><div class=\"character-container\">\n            <img src=\"https://raw.githubusercontent.com/githubpsyche/images/main/characters/Age_39_female_east-asian/cdf_AF-223_east-asian_female_45.jpg\" alt=\"Character east-asian female\">\n            <div>\n                <p>Race: East Asian</p>\n                <p>Sex: Female</p>\n                <p>Age: 45</p>\n            </div>\n        </div><div class=\"character-container\">\n            <img src=\"https://raw.githubusercontent.com/githubpsyche/images/main/characters/Age_32-38_female_white/cdf_WF-241_white_female_33.jpg\" alt=\"Character white female\">\n            <div>\n                <p>Race: White</p>\n                <p>Sex: Female</p>\n                <p>Age: 33</p>\n            </div>\n        </div></div>","response":1,"left_index":2,"right_index":8,"left_image":"https://raw.githubusercontent.com/githubpsyche/images/main/characters/Age_39_female_east-asian/cdf_AF-223_east-asian_female_45.jpg","right_image":"https://raw.githubusercontent.com/githubpsyche/images/main/characters/Age_32-38_female_white/cdf_WF-241_white_female_33.jpg","trial_type":"html-button-response","trial_index":15,"time_elapsed":24778,"internal_node_id":"0.0-15.0","choice":"right","winner":8,"loser":2},{"rt":682,"stimulus":"<div class=\"trial-container\"><div class=\"character-container\">\n            <img src=\"https://raw.githubusercontent.com/githubpsyche/images/main/characters/Age_25-31_female_latino/cdf_LF-225_latino_female_25.jpg\" alt=\"Character latino female\">\n            <div>\n                <p>Race: Latino</p>\n                <p>Sex: Female</p>\n                <p>Age: 25</p>\n            </div>\n        </div><div class=\"character-container\">\n            <img src=\"https://raw.githubusercontent.com/githubpsyche/images/main/characters/Age_24_female_south-asian/cdf_IF-608_south-asian_female_22.jpg\" alt=\"Character south-asian female\">\n            <div>\n                <p>Race: South Asian</p>\n                <p>Sex: Female</p>\n                <p>Age: 22</p>\n            </div>\n        </div></div>","response":0,"left_index":1,"right_index":5,"left_image":"https://raw.githubusercontent.com/githubpsyche/images/main/characters/Age_25-31_female_latino/cdf_LF-225_latino_female_25.jpg","right_image":"https://raw.githubusercontent.com/githubpsyche/images/main/characters/Age_24_female_south-asian/cdf_IF-608_south-asian_female_22.jpg","trial_type":"html-button-response","trial_index":16,"time_elapsed":25461,"internal_node_id":"0.0-16.0","choice":"left","winner":1,"loser":5},{"rt":531,"stimulus":"<div class=\"trial-container\"><div class=\"character-container\">\n            <img src=\"https://raw.githubusercontent.com/githubpsyche/images/main/characters/Age_39_female_latino/cdf_LF-238_latino_female_42.jpg\" alt=\"Character latino female\">\n            <div>\n                <p>Race: Latino</p>\n                <p>Sex: Female</p>\n                <p>Age: 42</p>\n            </div>\n        </div><div class=\"character-container\">\n            <img src=\"https://raw.githubusercontent.com/githubpsyche/images/main/characters/Age_32-38_female_white/cdf_WF-241_white_female_33.jpg\" alt=\"Character white female\">\n            <div>\n                <p>Race: White</p>\n                <p>Sex: Female</p>\n                <p>Age: 33</p>\n            </div>\n        </div></div>","response":1,"left_index":7,"right_index":8,"left_image":"https://raw.githubusercontent.com/githubpsyche/images/main/characters/Age_39_female_latino/cdf_LF-238_latino_female_42.jpg","right_image":"https://raw.githubusercontent.com/githubpsyche/images/main/characters/Age_32-38_female_white/cdf_WF-241_white_female_33.jpg","trial_type":"html-button-response","trial_index":17,"time_elapsed":25994,"internal_node_id":"0.0-17.0","choice":"right","winner":8,"loser":7},{"rt":633,"stimulus":"<div class=\"trial-container\"><div class=\"character-container\">\n            <img src=\"https://raw.githubusercontent.com/githubpsyche/images/main/characters/Age_32-38_female_black/cdf_BF-220_black_female_33.jpg\" alt=\"Character black female\">\n            <div>\n                <p>Race: Black</p>\n                <p>Sex: Female</p>\n                <p>Age: 33</p>\n            </div>\n        </div><div class=\"character-container\">\n            <img src=\"https://raw.githubusercontent.com/githubpsyche/images/main/characters/Age_39_female_east-asian/cdf_AF-223_east-asian_female_45.jpg\" alt=\"Character east-asian female\">\n            <div>\n                <p>Race: East Asian</p>\n                <p>Sex: Female</p>\n                <p>Age: 45</p>\n            </div>\n        </div></div>","response":0,"left_index":0,"right_index":2,"left_image":"https://raw.githubusercontent.com/githubpsyche/images/main/characters/Age_32-38_female_black/cdf_BF-220_black_female_33.jpg","right_image":"https://raw.githubusercontent.com/githubpsyche/images/main/characters/Age_39_female_east-asian/cdf_AF-223_east-asian_female_45.jpg","trial_type":"html-button-response","trial_index":18,"time_elapsed":26628,"internal_node_id":"0.0-18.0","choice":"left","winner":0,"loser":2},{"rt":597,"stimulus":"<div class=\"trial-container\"><div class=\"character-container\">\n            <img src=\"https://raw.githubusercontent.com/githubpsyche/images/main/characters/Age_39_male_white/cdf_WM-248_white_male_42.jpg\" alt=\"Character white male\">\n            <div>\n                <p>Race: White</p>\n                <p>Sex: Male</p>\n                <p>Age: 42</p>\n            </div>\n        </div><div class=\"character-container\">\n            <img src=\"https://raw.githubusercontent.com/githubpsyche/images/main/characters/Age_32-38_female_white/cdf_WF-241_white_female_33.jpg\" alt=\"Character white female\">\n            <div>\n                <p>Race: White</p>\n                <p>Sex: Female</p>\n                <p>Age: 33</p>\n            </div>\n        </div></div>","response":1,"left_index":4,"right_index":8,"left_image":"https://raw.githubusercontent.com/githubpsyche/images/main/characters/Age_39_male_white/cdf_WM-248_white_male_42.jpg","right_image":"https://raw.githubusercontent.com/githubpsyche/images/main/characters/Age_32-38_female_white/cdf_WF-241_white_female_33.jpg","trial_type":"html-button-response","trial_index":19,"time_elapsed":27227,"internal_node_id":"0.0-19.0","choice":"right","winner":8,"loser":4},{"rt":666,"stimulus":"<div class=\"trial-container\"><div class=\"character-container\">\n            <img src=\"https://raw.githubusercontent.com/githubpsyche/images/main/characters/Age_32-38_female_black/cdf_BF-220_black_female_33.jpg\" alt=\"Character black female\">\n            <div>\n                <p>Race: Black</p>\n                <p>Sex: Female</p>\n                <p>Age: 33</p>\n            </div>\n        </div><div class=\"character-container\">\n            <img src=\"https://raw.githubusercontent.com/githubpsyche/images/main/characters/Age_39_female_latino/cdf_LF-238_latino_female_42.jpg\" alt=\"Character latino female\">\n            <div>\n                <p>Race: Latino</p>\n                <p>Sex: Female</p>\n                <p>Age: 42</p>\n            </div>\n        </div></div>","response":0,"left_index":0,"right_index":7,"left_image":"https://raw.githubusercontent.com/githubpsyche/images/main/characters/Age_32-38_female_black/cdf_BF-220_black_female_33.jpg","right_image":"https://raw.githubusercontent.com/githubpsyche/images/main/characters/Age_39_female_latino/cdf_LF-238_latino_female_42.jpg","trial_type":"html-button-response","trial_index":20,"time_elapsed":27894,"internal_node_id":"0.0-20.0","choice":"left","winner":0,"loser":7},{"rt":599,"stimulus":"<div class=\"trial-container\"><div class=\"character-container\">\n            <img src=\"https://raw.githubusercontent.com/githubpsyche/images/main/characters/Age_24_female_south-asian/cdf_IF-608_south-asian_female_22.jpg\" alt=\"Character south-asian female\">\n            <div>\n                <p>Race: South Asian</p>\n                <p>Sex: Female</p>\n                <p>Age: 22</p>\n            </div>\n        </div><div class=\"character-container\">\n            <img src=\"https://raw.githubusercontent.com/githubpsyche/images/main/characters/Age_32-38_female_white/cdf_WF-241_white_female_33.jpg\" alt=\"Character white female\">\n            <div>\n                <p>Race: White</p>\n                <p>Sex: Female</p>\n                <p>Age: 33</p>\n            </div>\n        </div></div>","response":1,"left_index":5,"right_index":8,"left_image":"https://raw.githubusercontent.com/githubpsyche/images/main/characters/Age_24_female_south-asian/cdf_IF-608_south-asian_female_22.jpg","right_image":"https://raw.githubusercontent.com/githubpsyche/images/main/characters/Age_32-38_female_white/cdf_WF-241_white_female_33.jpg","trial_type":"html-button-response","trial_index":21,"time_elapsed":28494,"internal_node_id":"0.0-21.0","choice":"right","winner":8,"loser":5},{"rt":633,"stimulus":"<div class=\"trial-container\"><div class=\"character-container\">\n            <img src=\"https://raw.githubusercontent.com/githubpsyche/images/main/characters/Age_39_female_east-asian/cdf_AF-223_east-asian_female_45.jpg\" alt=\"Character east-asian female\">\n            <div>\n                <p>Race: East Asian</p>\n                <p>Sex: Female</p>\n                <p>Age: 45</p>\n            </div>\n        </div><div class=\"character-container\">\n            <img src=\"https://raw.githubusercontent.com/githubpsyche/images/main/characters/Age_39_female_latino/cdf_LF-238_latino_female_42.jpg\" alt=\"Character latino female\">\n            <div>\n                <p>Race: Latino</p>\n                <p>Sex: Female</p>\n                <p>Age: 42</p>\n            </div>\n        </div></div>","response":0,"left_index":2,"right_index":7,"left_image":"https://raw.githubusercontent.com/githubpsyche/images/main/characters/Age_39_female_east-asian/cdf_AF-223_east-asian_female_45.jpg","right_image":"https://raw.githubusercontent.com/githubpsyche/images/main/characters/Age_39_female_latino/cdf_LF-238_latino_female_42.jpg","trial_type":"html-button-response","trial_index":22,"time_elapsed":29128,"internal_node_id":"0.0-22.0","choice":"left","winner":2,"loser":7},{"rt":615,"stimulus":"<div class=\"trial-container\"><div class=\"character-container\">\n            <img src=\"https://raw.githubusercontent.com/githubpsyche/images/main/characters/Age_39_female_south-asian/cdf_IF-714_south-asian_female_46.jpg\" alt=\"Character south-asian female\">\n            <div>\n                <p>Race: South Asian</p>\n                <p>Sex: Female</p>\n                <p>Age: 46</p>\n            </div>\n        </div><div class=\"character-container\">\n            <img src=\"https://raw.githubusercontent.com/githubpsyche/images/main/characters/Age_32-38_female_white/cdf_WF-241_white_female_33.jpg\" alt=\"Character white female\">\n            <div>\n                <p>Race: White</p>\n                <p>Sex: Female</p>\n                <p>Age: 33</p>\n            </div>\n        </div></div>","response":1,"left_index":3,"right_index":8,"left_image":"https://raw.githubusercontent.com/githubpsyche/images/main/characters/Age_39_female_south-asian/cdf_IF-714_south-asian_female_46.jpg","right_image":"https://raw.githubusercontent.com/githubpsyche/images/main/characters/Age_32-38_female_white/cdf_WF-241_white_female_33.jpg","trial_type":"html-button-response","trial_index":23,"time_elapsed":29744,"internal_node_id":"0.0-23.0","choice":"right","winner":8,"loser":3},{"rt":615,"stimulus":"<div class=\"trial-container\"><div class=\"character-container\">\n            <img src=\"https://raw.githubusercontent.com/githubpsyche/images/main/characters/Age_39_female_east-asian/cdf_AF-223_east-asian_female_45.jpg\" alt=\"Character east-asian female\">\n            <div>\n                <p>Race: East Asian</p>\n                <p>Sex: Female</p>\n                <p>Age: 45</p>\n            </div>\n        </div><div class=\"character-container\">\n            <img src=\"https://raw.githubusercontent.com/githubpsyche/images/main/characters/Age_25-31_male_white/cdf_WM-203_white_male_29.jpg\" alt=\"Character white male\">\n            <div>\n                <p>Race: White</p>\n                <p>Sex: Male</p>\n                <p>Age: 29</p>\n            </div>\n        </div></div>","response":0,"left_index":2,"right_index":6,"left_image":"https://raw.githubusercontent.com/githubpsyche/images/main/characters/Age_39_female_east-asian/cdf_AF-223_east-asian_female_45.jpg","right_image":"https://raw.githubusercontent.com/githubpsyche/images/main/characters/Age_25-31_male_white/cdf_WM-203_white_male_29.jpg","trial_type":"html-button-response","trial_index":24,"time_elapsed":30361,"internal_node_id":"0.0-24.0","choice":"left","winner":2,"loser":6},{"rt":615,"stimulus":"<div class=\"trial-container\"><div class=\"character-container\">\n            <img src=\"https://raw.githubusercontent.com/githubpsyche/images/main/characters/Age_39_male_white/cdf_WM-248_white_male_42.jpg\" alt=\"Character white male\">\n            <div>\n                <p>Race: White</p>\n                <p>Sex: Male</p>\n                <p>Age: 42</p>\n            </div>\n        </div><div class=\"character-container\">\n            <img src=\"https://raw.githubusercontent.com/githubpsyche/images/main/characters/Age_39_female_latino/cdf_LF-238_latino_female_42.jpg\" alt=\"Character latino female\">\n            <div>\n                <p>Race: Latino</p>\n                <p>Sex: Female</p>\n                <p>Age: 42</p>\n            </div>\n        </div></div>","response":1,"left_index":4,"right_index":7,"left_image":"https://raw.githubusercontent.com/githubpsyche/images/main/characters/Age_39_male_white/cdf_WM-248_white_male_42.jpg","right_image":"https://raw.githubusercontent.com/githubpsyche/images/main/characters/Age_39_female_latino/cdf_LF-238_latino_female_42.jpg","trial_type":"html-button-response","trial_index":25,"time_elapsed":30977,"internal_node_id":"0.0-25.0","choice":"right","winner":7,"loser":4},{"rt":633,"stimulus":"<div class=\"trial-container\"><div class=\"character-container\">\n            <img src=\"https://raw.githubusercontent.com/githubpsyche/images/main/characters/Age_32-38_female_black/cdf_BF-220_black_female_33.jpg\" alt=\"Character black female\">\n            <div>\n                <p>Race: Black</p>\n                <p>Sex: Female</p>\n                <p>Age: 33</p>\n            </div>\n        </div><div class=\"character-container\">\n            <img src=\"https://raw.githubusercontent.com/githubpsyche/images/main/characters/Age_25-31_female_latino/cdf_LF-225_latino_female_25.jpg\" alt=\"Character latino female\">\n            <div>\n                <p>Race: Latino</p>\n                <p>Sex: Female</p>\n                <p>Age: 25</p>\n            </div>\n        </div></div>","response":0,"left_index":0,"right_index":1,"left_image":"https://raw.githubusercontent.com/githubpsyche/images/main/characters/Age_32-38_female_black/cdf_BF-220_black_female_33.jpg","right_image":"https://raw.githubusercontent.com/githubpsyche/images/main/characters/Age_25-31_female_latino/cdf_LF-225_latino_female_25.jpg","trial_type":"html-button-response","trial_index":26,"time_elapsed":31611,"internal_node_id":"0.0-26.0","choice":"left","winner":0,"loser":1},{"rt":532,"stimulus":"<div class=\"trial-container\"><div class=\"character-container\">\n            <img src=\"https://raw.githubusercontent.com/githubpsyche/images/main/characters/Age_39_female_south-asian/cdf_IF-714_south-asian_female_46.jpg\" alt=\"Character south-asian female\">\n            <div>\n                <p>Race: South Asian</p>\n                <p>Sex: Female</p>\n                <p>Age: 46</p>\n            </div>\n        </div><div class=\"character-container\">\n            <img src=\"https://raw.githubusercontent.com/githubpsyche/images/main/characters/Age_39_male_white/cdf_WM-248_white_male_42.jpg\" alt=\"Character white male\">\n            <div>\n                <p>Race: White</p>\n                <p>Sex: Male</p>\n                <p>Age: 42</p>\n            </div>\n        </div></div>","response":1,"left_index":3,"right_index":4,"left_image":"https://raw.githubusercontent.com/githubpsyche/images/main/characters/Age_39_female_south-asian/cdf_IF-714_south-asian_female_46.jpg","right_image":"https://raw.githubusercontent.com/githubpsyche/images/main/characters/Age_39_male_white/cdf_WM-248_white_male_42.jpg","trial_type":"html-button-response","trial_index":27,"time_elapsed":32144,"internal_node_id":"0.0-27.0","choice":"right","winner":4,"loser":3},{"rt":565,"stimulus":"<div class=\"trial-container\"><div class=\"character-container\">\n            <img src=\"https://raw.githubusercontent.com/githubpsyche/images/main/characters/Age_24_female_south-asian/cdf_IF-608_south-asian_female_22.jpg\" alt=\"Character south-asian female\">\n            <div>\n                <p>Race: South Asian</p>\n                <p>Sex: Female</p>\n                <p>Age: 22</p>\n            </div>\n        </div><div class=\"character-container\">\n            <img src=\"https://raw.githubusercontent.com/githubpsyche/images/main/characters/Age_39_female_latino/cdf_LF-238_latino_female_42.jpg\" alt=\"Character latino female\">\n            <div>\n                <p>Race: Latino</p>\n                <p>Sex: Female</p>\n                <p>Age: 42</p>\n            </div>\n        </div></div>","response":0,"left_index":5,"right_index":7,"left_image":"https://raw.githubusercontent.com/githubpsyche/images/main/characters/Age_24_female_south-asian/cdf_IF-608_south-asian_female_22.jpg","right_image":"https://raw.githubusercontent.com/githubpsyche/images/main/characters/Age_39_female_latino/cdf_LF-238_latino_female_42.jpg","trial_type":"html-button-response","trial_index":28,"time_elapsed":32711,"internal_node_id":"0.0-28.0","choice":"left","winner":5,"loser":7},{"rt":548,"stimulus":"<div class=\"trial-container\"><div class=\"character-container\">\n            <img src=\"https://raw.githubusercontent.com/githubpsyche/images/main/characters/Age_32-38_female_black/cdf_BF-220_black_female_33.jpg\" alt=\"Character black female\">\n            <div>\n                <p>Race: Black</p>\n                <p>Sex: Female</p>\n                <p>Age: 33</p>\n            </div>\n        </div><div class=\"character-container\">\n            <img src=\"https://raw.githubusercontent.com/githubpsyche/images/main/characters/Age_25-31_male_white/cdf_WM-203_white_male_29.jpg\" alt=\"Character white male\">\n            <div>\n                <p>Race: White</p>\n                <p>Sex: Male</p>\n                <p>Age: 29</p>\n            </div>\n        </div></div>","response":1,"left_index":0,"right_index":6,"left_image":"https://raw.githubusercontent.com/githubpsyche/images/main/characters/Age_32-38_female_black/cdf_BF-220_black_female_33.jpg","right_image":"https://raw.githubusercontent.com/githubpsyche/images/main/characters/Age_25-31_male_white/cdf_WM-203_white_male_29.jpg","trial_type":"html-button-response","trial_index":29,"time_elapsed":33260,"internal_node_id":"0.0-29.0","choice":"right","winner":6,"loser":0},{"rt":599,"stimulus":"<div class=\"trial-container\"><div class=\"character-container\">\n            <img src=\"https://raw.githubusercontent.com/githubpsyche/images/main/characters/Age_25-31_female_latino/cdf_LF-225_latino_female_25.jpg\" alt=\"Character latino female\">\n            <div>\n                <p>Race: Latino</p>\n                <p>Sex: Female</p>\n                <p>Age: 25</p>\n            </div>\n        </div><div class=\"character-container\">\n            <img src=\"https://raw.githubusercontent.com/githubpsyche/images/main/characters/Age_32-38_female_white/cdf_WF-241_white_female_33.jpg\" alt=\"Character white female\">\n            <div>\n                <p>Race: White</p>\n                <p>Sex: Female</p>\n                <p>Age: 33</p>\n            </div>\n        </div></div>","response":0,"left_index":1,"right_index":8,"left_image":"https://raw.githubusercontent.com/githubpsyche/images/main/characters/Age_25-31_female_latino/cdf_LF-225_latino_female_25.jpg","right_image":"https://raw.githubusercontent.com/githubpsyche/images/main/characters/Age_32-38_female_white/cdf_WF-241_white_female_33.jpg","trial_type":"html-button-response","trial_index":30,"time_elapsed":33860,"internal_node_id":"0.0-30.0","choice":"left","winner":1,"loser":8},{"rt":549,"stimulus":"<div class=\"trial-container\"><div class=\"character-container\">\n            <img src=\"https://raw.githubusercontent.com/githubpsyche/images/main/characters/Age_39_male_white/cdf_WM-248_white_male_42.jpg\" alt=\"Character white male\">\n            <div>\n                <p>Race: White</p>\n                <p>Sex: Male</p>\n                <p>Age: 42</p>\n            </div>\n        </div><div class=\"character-container\">\n            <img src=\"https://raw.githubusercontent.com/githubpsyche/images/main/characters/Age_24_female_south-asian/cdf_IF-608_south-asian_female_22.jpg\" alt=\"Character south-asian female\">\n            <div>\n                <p>Race: South Asian</p>\n                <p>Sex: Female</p>\n                <p>Age: 22</p>\n            </div>\n        </div></div>","response":1,"left_index":4,"right_index":5,"left_image":"https://raw.githubusercontent.com/githubpsyche/images/main/characters/Age_39_male_white/cdf_WM-248_white_male_42.jpg","right_image":"https://raw.githubusercontent.com/githubpsyche/images/main/characters/Age_24_female_south-asian/cdf_IF-608_south-asian_female_22.jpg","trial_type":"html-button-response","trial_index":31,"time_elapsed":34410,"internal_node_id":"0.0-31.0","choice":"right","winner":5,"loser":4},{"rt":518,"stimulus":"<div class=\"trial-container\"><div class=\"character-container\">\n            <img src=\"https://raw.githubusercontent.com/githubpsyche/images/main/characters/Age_25-31_male_white/cdf_WM-203_white_male_29.jpg\" alt=\"Character white male\">\n            <div>\n                <p>Race: White</p>\n                <p>Sex: Male</p>\n                <p>Age: 29</p>\n            </div>\n        </div><div class=\"character-container\">\n            <img src=\"https://raw.githubusercontent.com/githubpsyche/images/main/characters/Age_39_female_latino/cdf_LF-238_latino_female_42.jpg\" alt=\"Character latino female\">\n            <div>\n                <p>Race: Latino</p>\n                <p>Sex: Female</p>\n                <p>Age: 42</p>\n            </div>\n        </div></div>","response":0,"left_index":6,"right_index":7,"left_image":"https://raw.githubusercontent.com/githubpsyche/images/main/characters/Age_25-31_male_white/cdf_WM-203_white_male_29.jpg","right_image":"https://raw.githubusercontent.com/githubpsyche/images/main/characters/Age_39_female_latino/cdf_LF-238_latino_female_42.jpg","trial_type":"html-button-response","trial_index":32,"time_elapsed":34930,"internal_node_id":"0.0-32.0","choice":"left","winner":6,"loser":7},{"rt":1380,"stimulus":"<div class=\"trial-container\"><div class=\"character-container\">\n            <img src=\"https://raw.githubusercontent.com/githubpsyche/images/main/characters/Age_39_female_east-asian/cdf_AF-223_east-asian_female_45.jpg\" alt=\"Character east-asian female\">\n            <div>\n                <p>Race: East Asian</p>\n                <p>Sex: Female</p>\n                <p>Age: 45</p>\n            </div>\n        </div><div class=\"character-container\">\n            <img src=\"https://raw.githubusercontent.com/githubpsyche/images/main/characters/Age_24_female_south-asian/cdf_IF-608_south-asian_female_22.jpg\" alt=\"Character south-asian female\">\n            <div>\n                <p>Race: South Asian</p>\n                <p>Sex: Female</p>\n                <p>Age: 22</p>\n            </div>\n        </div></div>","response":1,"left_index":2,"right_index":5,"left_image":"https://raw.githubusercontent.com/githubpsyche/images/main/characters/Age_39_female_east-asian/cdf_AF-223_east-asian_female_45.jpg","right_image":"https://raw.githubusercontent.com/githubpsyche/images/main/characters/Age_24_female_south-asian/cdf_IF-608_south-asian_female_22.jpg","trial_type":"html-button-response","trial_index":33,"time_elapsed":36311,"internal_node_id":"0.0-33.0","choice":"right","winner":5,"loser":2},{"rt":998,"stimulus":"<div class=\"trial-container\"><div class=\"character-container\">\n            <img src=\"https://raw.githubusercontent.com/githubpsyche/images/main/characters/Age_25-31_female_latino/cdf_LF-225_latino_female_25.jpg\" alt=\"Character latino female\">\n            <div>\n                <p>Race: Latino</p>\n                <p>Sex: Female</p>\n                <p>Age: 25</p>\n            </div>\n        </div><div class=\"character-container\">\n            <img src=\"https://raw.githubusercontent.com/githubpsyche/images/main/characters/Age_39_female_latino/cdf_LF-238_latino_female_42.jpg\" alt=\"Character latino female\">\n            <div>\n                <p>Race: Latino</p>\n                <p>Sex: Female</p>\n                <p>Age: 42</p>\n            </div>\n        </div></div>","response":0,"left_index":1,"right_index":7,"left_image":"https://raw.githubusercontent.com/githubpsyche/images/main/characters/Age_25-31_female_latino/cdf_LF-225_latino_female_25.jpg","right_image":"https://raw.githubusercontent.com/githubpsyche/images/main/characters/Age_39_female_latino/cdf_LF-238_latino_female_42.jpg","trial_type":"html-button-response","trial_index":34,"time_elapsed":37310,"internal_node_id":"0.0-34.0","choice":"left","winner":1,"loser":7},{"rt":798,"stimulus":"<div class=\"trial-container\"><div class=\"character-container\">\n            <img src=\"https://raw.githubusercontent.com/githubpsyche/images/main/characters/Age_32-38_female_black/cdf_BF-220_black_female_33.jpg\" alt=\"Character black female\">\n            <div>\n                <p>Race: Black</p>\n                <p>Sex: Female</p>\n                <p>Age: 33</p>\n            </div>\n        </div><div class=\"character-container\">\n            <img src=\"https://raw.githubusercontent.com/githubpsyche/images/main/characters/Age_39_female_south-asian/cdf_IF-714_south-asian_female_46.jpg\" alt=\"Character south-asian female\">\n            <div>\n                <p>Race: South Asian</p>\n                <p>Sex: Female</p>\n                <p>Age: 46</p>\n            </div>\n        </div></div>","response":1,"left_index":0,"right_index":3,"left_image":"https://raw.githubusercontent.com/githubpsyche/images/main/characters/Age_32-38_female_black/cdf_BF-220_black_female_33.jpg","right_image":"https://raw.githubusercontent.com/githubpsyche/images/main/characters/Age_39_female_south-asian/cdf_IF-714_south-asian_female_46.jpg","trial_type":"html-button-response","trial_index":35,"time_elapsed":38111,"internal_node_id":"0.0-35.0","choice":"right","winner":3,"loser":0},{"rt":631,"stimulus":"<div class=\"trial-container\"><div class=\"character-container\">\n            <img src=\"https://raw.githubusercontent.com/githubpsyche/images/main/characters/Age_25-31_female_latino/cdf_LF-225_latino_female_25.jpg\" alt=\"Character latino female\">\n            <div>\n                <p>Race: Latino</p>\n                <p>Sex: Female</p>\n                <p>Age: 25</p>\n            </div>\n        </div><div class=\"character-container\">\n            <img src=\"https://raw.githubusercontent.com/githubpsyche/images/main/characters/Age_39_male_white/cdf_WM-248_white_male_42.jpg\" alt=\"Character white male\">\n            <div>\n                <p>Race: White</p>\n                <p>Sex: Male</p>\n                <p>Age: 42</p>\n            </div>\n        </div></div>","response":0,"left_index":1,"right_index":4,"left_image":"https://raw.githubusercontent.com/githubpsyche/images/main/characters/Age_25-31_female_latino/cdf_LF-225_latino_female_25.jpg","right_image":"https://raw.githubusercontent.com/githubpsyche/images/main/characters/Age_39_male_white/cdf_WM-248_white_male_42.jpg","trial_type":"html-button-response","trial_index":36,"time_elapsed":38744,"internal_node_id":"0.0-36.0","choice":"left","winner":1,"loser":4},{"rt":798,"stimulus":"<div class=\"trial-container\"><div class=\"character-container\">\n            <img src=\"https://raw.githubusercontent.com/githubpsyche/images/main/characters/Age_25-31_male_white/cdf_WM-203_white_male_29.jpg\" alt=\"Character white male\">\n            <div>\n                <p>Race: White</p>\n                <p>Sex: Male</p>\n                <p>Age: 29</p>\n            </div>\n        </div><div class=\"character-container\">\n            <img src=\"https://raw.githubusercontent.com/githubpsyche/images/main/characters/Age_32-38_female_white/cdf_WF-241_white_female_33.jpg\" alt=\"Character white female\">\n            <div>\n                <p>Race: White</p>\n                <p>Sex: Female</p>\n                <p>Age: 33</p>\n            </div>\n        </div></div>","response":1,"left_index":6,"right_index":8,"left_image":"https://raw.githubusercontent.com/githubpsyche/images/main/characters/Age_25-31_male_white/cdf_WM-203_white_male_29.jpg","right_image":"https://raw.githubusercontent.com/githubpsyche/images/main/characters/Age_32-38_female_white/cdf_WF-241_white_female_33.jpg","trial_type":"html-button-response","trial_index":37,"time_elapsed":39544,"internal_node_id":"0.0-37.0","choice":"right","winner":8,"loser":6},{"rt":598,"stimulus":"<div class=\"trial-container\"><div class=\"character-container\">\n            <img src=\"https://raw.githubusercontent.com/githubpsyche/images/main/characters/Age_32-38_female_black/cdf_BF-220_black_female_33.jpg\" alt=\"Character black female\">\n            <div>\n                <p>Race: Black</p>\n                <p>Sex: Female</p>\n                <p>Age: 33</p>\n            </div>\n        </div><div class=\"character-container\">\n            <img src=\"https://raw.githubusercontent.com/githubpsyche/images/main/characters/Age_39_male_white/cdf_WM-248_white_male_42.jpg\" alt=\"Character white male\">\n            <div>\n                <p>Race: White</p>\n                <p>Sex: Male</p>\n                <p>Age: 42</p>\n            </div>\n        </div></div>","response":0,"left_index":0,"right_index":4,"left_image":"https://raw.githubusercontent.com/githubpsyche/images/main/characters/Age_32-38_female_black/cdf_BF-220_black_female_33.jpg","right_image":"https://raw.githubusercontent.com/githubpsyche/images/main/characters/Age_39_male_white/cdf_WM-248_white_male_42.jpg","trial_type":"html-button-response","trial_index":38,"time_elapsed":40143,"internal_node_id":"0.0-38.0","choice":"left","winner":0,"loser":4},{"rt":550,"stimulus":"<div class=\"trial-container\"><div class=\"character-container\">\n            <img src=\"https://raw.githubusercontent.com/githubpsyche/images/main/characters/Age_25-31_female_latino/cdf_LF-225_latino_female_25.jpg\" alt=\"Character latino female\">\n            <div>\n                <p>Race: Latino</p>\n                <p>Sex: Female</p>\n                <p>Age: 25</p>\n            </div>\n        </div><div class=\"character-container\">\n            <img src=\"https://raw.githubusercontent.com/githubpsyche/images/main/characters/Age_39_female_south-asian/cdf_IF-714_south-asian_female_46.jpg\" alt=\"Character south-asian female\">\n            <div>\n                <p>Race: South Asian</p>\n                <p>Sex: Female</p>\n                <p>Age: 46</p>\n            </div>\n        </div></div>","response":1,"left_index":1,"right_index":3,"left_image":"https://raw.githubusercontent.com/githubpsyche/images/main/characters/Age_25-31_female_latino/cdf_LF-225_latino_female_25.jpg","right_image":"https://raw.githubusercontent.com/githubpsyche/images/main/characters/Age_39_female_south-asian/cdf_IF-714_south-asian_female_46.jpg","trial_type":"html-button-response","trial_index":39,"time_elapsed":40695,"internal_node_id":"0.0-39.0","choice":"right","winner":3,"loser":1},{"rt":714,"stimulus":"<div class=\"trial-container\"><div class=\"character-container\">\n            <img src=\"https://raw.githubusercontent.com/githubpsyche/images/main/characters/Age_39_male_white/cdf_WM-248_white_male_42.jpg\" alt=\"Character white male\">\n            <div>\n                <p>Race: White</p>\n                <p>Sex: Male</p>\n                <p>Age: 42</p>\n            </div>\n        </div><div class=\"character-container\">\n            <img src=\"https://raw.githubusercontent.com/githubpsyche/images/main/characters/Age_25-31_male_white/cdf_WM-203_white_male_29.jpg\" alt=\"Character white male\">\n            <div>\n                <p>Race: White</p>\n                <p>Sex: Male</p>\n                <p>Age: 29</p>\n            </div>\n        </div></div>","response":0,"left_index":4,"right_index":6,"left_image":"https://raw.githubusercontent.com/githubpsyche/images/main/characters/Age_39_male_white/cdf_WM-248_white_male_42.jpg","right_image":"https://raw.githubusercontent.com/githubpsyche/images/main/characters/Age_25-31_male_white/cdf_WM-203_white_male_29.jpg","trial_type":"html-button-response","trial_index":40,"time_elapsed":41411,"internal_node_id":"0.0-40.0","choice":"left","winner":4,"loser":6},{"rt":531,"stimulus":"<div class=\"trial-container\"><div class=\"character-container\">\n            <img src=\"https://raw.githubusercontent.com/githubpsyche/images/main/characters/Age_32-38_female_black/cdf_BF-220_black_female_33.jpg\" alt=\"Character black female\">\n            <div>\n                <p>Race: Black</p>\n                <p>Sex: Female</p>\n                <p>Age: 33</p>\n            </div>\n        </div><div class=\"character-container\">\n            <img src=\"https://raw.githubusercontent.com/githubpsyche/images/main/characters/Age_24_female_south-asian/cdf_IF-608_south-asian_female_22.jpg\" alt=\"Character south-asian female\">\n            <div>\n                <p>Race: South Asian</p>\n                <p>Sex: Female</p>\n                <p>Age: 22</p>\n            </div>\n        </div></div>","response":1,"left_index":0,"right_index":5,"left_image":"https://raw.githubusercontent.com/githubpsyche/images/main/characters/Age_32-38_female_black/cdf_BF-220_black_female_33.jpg","right_image":"https://raw.githubusercontent.com/githubpsyche/images/main/characters/Age_24_female_south-asian/cdf_IF-608_south-asian_female_22.jpg","trial_type":"html-button-response","trial_index":41,"time_elapsed":41943,"internal_node_id":"0.0-41.0","choice":"right","winner":5,"loser":0},{"rt":582,"stimulus":"<div class=\"trial-container\"><div class=\"character-container\">\n            <img src=\"https://raw.githubusercontent.com/githubpsyche/images/main/characters/Age_24_female_south-asian/cdf_IF-608_south-asian_female_22.jpg\" alt=\"Character south-asian female\">\n            <div>\n                <p>Race: South Asian</p>\n                <p>Sex: Female</p>\n                <p>Age: 22</p>\n            </div>\n        </div><div class=\"character-container\">\n            <img src=\"https://raw.githubusercontent.com/githubpsyche/images/main/characters/Age_25-31_male_white/cdf_WM-203_white_male_29.jpg\" alt=\"Character white male\">\n            <div>\n                <p>Race: White</p>\n                <p>Sex: Male</p>\n                <p>Age: 29</p>\n            </div>\n        </div></div>","response":0,"left_index":5,"right_index":6,"left_image":"https://raw.githubusercontent.com/githubpsyche/images/main/characters/Age_24_female_south-asian/cdf_IF-608_south-asian_female_22.jpg","right_image":"https://raw.githubusercontent.com/githubpsyche/images/main/characters/Age_25-31_male_white/cdf_WM-203_white_male_29.jpg","trial_type":"html-button-response","trial_index":42,"time_elapsed":42527,"internal_node_id":"0.0-42.0","choice":"left","winner":5,"loser":6},{"view_history":[{"page_index":0,"viewing_time":9265}],"rt":9266,"trial_type":"instructions","trial_index":43,"time_elapsed":51793,"internal_node_id":"0.0-43.0"},{"ranked_order":[{"rank":1,"index":0,"label":"experiments/sortablerank/user.png","content":"\n            <img src=\"experiments/sortablerank/user.png\" alt=\"Participant\">\n            <div>\n                <p><strong>You (Leader)</strong></p>\n            </div>\n        ","team":"Your Team"},{"rank":2,"index":1,"label":"https://raw.githubusercontent.com/githubpsyche/images/main/characters/Age_32-38_female_white/cdf_WF-241_white_female_33.jpg","content":"\n            <img src=\"https://raw.githubusercontent.com/githubpsyche/images/main/characters/Age_32-38_female_white/cdf_WF-241_white_female_33.jpg\" alt=\"Character white female\">\n            <div>\n                <p>Race: White</p>\n                <p>Sex: Female</p>\n                <p>Age: 33</p>\n            </div>\n        ","team":"Your Team"},{"rank":3,"index":2,"label":"https://raw.githubusercontent.com/githubpsyche/images/main/characters/Age_39_female_south-asian/cdf_IF-714_south-asian_female_46.jpg","content":"\n            <img src=\"https://raw.githubusercontent.com/githubpsyche/images/main/characters/Age_39_female_south-asian/cdf_IF-714_south-asian_female_46.jpg\" alt=\"Character south-asian female\">\n            <div>\n                <p>Race: South Asian</p>\n                <p>Sex: Female</p>\n                <p>Age: 46</p>\n            </div>\n        ","team":"Your Team"},{"rank":4,"index":3,"label":"https://raw.githubusercontent.com/githubpsyche/images/main/characters/Age_24_female_south-asian/cdf_IF-608_south-asian_female_22.jpg","content":"\n            <img src=\"https://raw.githubusercontent.com/githubpsyche/images/main/characters/Age_24_female_south-asian/cdf_IF-608_south-asian_female_22.jpg\" alt=\"Character south-asian female\">\n            <div>\n                <p>Race: South Asian</p>\n                <p>Sex: Female</p>\n                <p>Age: 22</p>\n            </div>\n        ","team":"Your Team"},{"rank":5,"index":4,"label":"https://raw.githubusercontent.com/githubpsyche/images/main/characters/Age_32-38_female_black/cdf_BF-220_black_female_33.jpg","content":"\n            <img src=\"https://raw.githubusercontent.com/githubpsyche/images/main/characters/Age_32-38_female_black/cdf_BF-220_black_female_33.jpg\" alt=\"Character black female\">\n            <div>\n                <p>Race: Black</p>\n                <p>Sex: Female</p>\n                <p>Age: 33</p>\n            </div>\n        ","team":"Your Team"},{"rank":6,"index":5,"label":"https://raw.githubusercontent.com/githubpsyche/images/main/characters/Age_25-31_female_latino/cdf_LF-225_latino_female_25.jpg","content":"\n            <img src=\"https://raw.githubusercontent.com/githubpsyche/images/main/characters/Age_25-31_female_latino/cdf_LF-225_latino_female_25.jpg\" alt=\"Character latino female\">\n            <div>\n                <p>Race: Latino</p>\n                <p>Sex: Female</p>\n                <p>Age: 25</p>\n            </div>\n        ","team":"Opposing Team"},{"rank":7,"index":6,"label":"https://raw.githubusercontent.com/githubpsyche/images/main/characters/Age_39_female_east-asian/cdf_AF-223_east-asian_female_45.jpg","content":"\n            <img src=\"https://raw.githubusercontent.com/githubpsyche/images/main/characters/Age_39_female_east-asian/cdf_AF-223_east-asian_female_45.jpg\" alt=\"Character east-asian female\">\n            <div>\n                <p>Race: East Asian</p>\n                <p>Sex: Female</p>\n                <p>Age: 45</p>\n            </div>\n        ","team":"Opposing Team"},{"rank":8,"index":8,"label":"https://raw.githubusercontent.com/githubpsyche/images/main/characters/Age_25-31_male_white/cdf_WM-203_white_male_29.jpg","content":"\n            <img src=\"https://raw.githubusercontent.com/githubpsyche/images/main/characters/Age_25-31_male_white/cdf_WM-203_white_male_29.jpg\" alt=\"Character white male\">\n            <div>\n                <p>Race: White</p>\n                <p>Sex: Male</p>\n                <p>Age: 29</p>\n            </div>\n        ","team":"Opposing Team"},{"rank":9,"index":7,"label":"https://raw.githubusercontent.com/githubpsyche/images/main/characters/Age_39_male_white/cdf_WM-248_white_male_42.jpg","content":"\n            <img src=\"https://raw.githubusercontent.com/githubpsyche/images/main/characters/Age_39_male_white/cdf_WM-248_white_male_42.jpg\" alt=\"Character white male\">\n            <div>\n                <p>Race: White</p>\n                <p>Sex: Male</p>\n                <p>Age: 42</p>\n            </div>\n        ","team":"Opposing Team"},{"rank":10,"index":9,"label":"https://raw.githubusercontent.com/githubpsyche/images/main/characters/Age_39_female_latino/cdf_LF-238_latino_female_42.jpg","content":"\n            <img src=\"https://raw.githubusercontent.com/githubpsyche/images/main/characters/Age_39_female_latino/cdf_LF-238_latino_female_42.jpg\" alt=\"Character latino female\">\n            <div>\n                <p>Race: Latino</p>\n                <p>Sex: Female</p>\n                <p>Age: 42</p>\n            </div>\n        ","team":"Opposing Team"}],"team_a":[{"index":0,"label":"experiments/sortablerank/user.png","content":"\n            <img src=\"experiments/sortablerank/user.png\" alt=\"Participant\">\n            <div>\n                <p><strong>You (Leader)</strong></p>\n            </div>\n        "},{"index":1,"label":"https://raw.githubusercontent.com/githubpsyche/images/main/characters/Age_32-38_female_white/cdf_WF-241_white_female_33.jpg","content":"\n            <img src=\"https://raw.githubusercontent.com/githubpsyche/images/main/characters/Age_32-38_female_white/cdf_WF-241_white_female_33.jpg\" alt=\"Character white female\">\n            <div>\n                <p>Race: White</p>\n                <p>Sex: Female</p>\n                <p>Age: 33</p>\n            </div>\n        "},{"index":2,"label":"https://raw.githubusercontent.com/githubpsyche/images/main/characters/Age_39_female_south-asian/cdf_IF-714_south-asian_female_46.jpg","content":"\n            <img src=\"https://raw.githubusercontent.com/githubpsyche/images/main/characters/Age_39_female_south-asian/cdf_IF-714_south-asian_female_46.jpg\" alt=\"Character south-asian female\">\n            <div>\n                <p>Race: South Asian</p>\n                <p>Sex: Female</p>\n                <p>Age: 46</p>\n            </div>\n        "},{"index":3,"label":"https://raw.githubusercontent.com/githubpsyche/images/main/characters/Age_24_female_south-asian/cdf_IF-608_south-asian_female_22.jpg","content":"\n            <img src=\"https://raw.githubusercontent.com/githubpsyche/images/main/characters/Age_24_female_south-asian/cdf_IF-608_south-asian_female_22.jpg\" alt=\"Character south-asian female\">\n            <div>\n                <p>Race: South Asian</p>\n                <p>Sex: Female</p>\n                <p>Age: 22</p>\n            </div>\n        "},{"index":4,"label":"https://raw.githubusercontent.com/githubpsyche/images/main/characters/Age_32-38_female_black/cdf_BF-220_black_female_33.jpg","content":"\n            <img src=\"https://raw.githubusercontent.com/githubpsyche/images/main/characters/Age_32-38_female_black/cdf_BF-220_black_female_33.jpg\" alt=\"Character black female\">\n            <div>\n                <p>Race: Black</p>\n                <p>Sex: Female</p>\n                <p>Age: 33</p>\n            </div>\n        "}],"team_b":[{"index":5,"label":"https://raw.githubusercontent.com/githubpsyche/images/main/characters/Age_25-31_female_latino/cdf_LF-225_latino_female_25.jpg","content":"\n            <img src=\"https://raw.githubusercontent.com/githubpsyche/images/main/characters/Age_25-31_female_latino/cdf_LF-225_latino_female_25.jpg\" alt=\"Character latino female\">\n            <div>\n                <p>Race: Latino</p>\n                <p>Sex: Female</p>\n                <p>Age: 25</p>\n            </div>\n        "},{"index":6,"label":"https://raw.githubusercontent.com/githubpsyche/images/main/characters/Age_39_female_east-asian/cdf_AF-223_east-asian_female_45.jpg","content":"\n            <img src=\"https://raw.githubusercontent.com/githubpsyche/images/main/characters/Age_39_female_east-asian/cdf_AF-223_east-asian_female_45.jpg\" alt=\"Character east-asian female\">\n            <div>\n                <p>Race: East Asian</p>\n                <p>Sex: Female</p>\n                <p>Age: 45</p>\n            </div>\n        "},{"index":8,"label":"https://raw.githubusercontent.com/githubpsyche/images/main/characters/Age_25-31_male_white/cdf_WM-203_white_male_29.jpg","content":"\n            <img src=\"https://raw.githubusercontent.com/githubpsyche/images/main/characters/Age_25-31_male_white/cdf_WM-203_white_male_29.jpg\" alt=\"Character white male\">\n            <div>\n                <p>Race: White</p>\n                <p>Sex: Male</p>\n                <p>Age: 29</p>\n            </div>\n        "},{"index":7,"label":"https://raw.githubusercontent.com/githubpsyche/images/main/characters/Age_39_male_white/cdf_WM-248_white_male_42.jpg","content":"\n            <img src=\"https://raw.githubusercontent.com/githubpsyche/images/main/characters/Age_39_male_white/cdf_WM-248_white_male_42.jpg\" alt=\"Character white male\">\n            <div>\n                <p>Race: White</p>\n                <p>Sex: Male</p>\n                <p>Age: 42</p>\n            </div>\n        "},{"index":9,"label":"https://raw.githubusercontent.com/githubpsyche/images/main/characters/Age_39_female_latino/cdf_LF-238_latino_female_42.jpg","content":"\n            <img src=\"https://raw.githubusercontent.com/githubpsyche/images/main/characters/Age_39_female_latino/cdf_LF-238_latino_female_42.jpg\" alt=\"Character latino female\">\n            <div>\n                <p>Race: Latino</p>\n                <p>Sex: Female</p>\n                <p>Age: 42</p>\n            </div>\n        "}],"trial_type":"two-team-sortable-rank","trial_index":44,"time_elapsed":63227,"internal_node_id":"0.0-44.0"},{"rt":6013,"response":{"deception":"no"},"trial_type":"survey-html-form","trial_index":45,"time_elapsed":69242,"internal_node_id":"0.0-45.0"},{"view_history":[{"page_index":0,"viewing_time":1299}],"rt":1300,"trial_type":"instructions","trial_index":46,"time_elapsed":70542,"internal_node_id":"0.0-46.0"}]