[{"view_history":[{"page_index":0,"viewing_time":16634}],"rt":16634,"condition":0,"ordering":0,"trial_type":"instructions","trial_index":0,"time_elapsed":16639,"internal_node_id":"0.0-0.0"},{"view_history":[{"page_index":0,"viewing_time":1518}],"rt":1518,"trial_type":"instructions","trial_index":1,"time_elapsed":18159,"internal_node_id":"0.0-1.0"},{"rt":11887,"response":{"race":"White","gender":"man","age":"33","college":"yes"},"trial_type":"survey-html-form","trial_index":2,"time_elapsed":30049,"internal_node_id":"0.0-2.0"},{"rt":2748,"stimulus":"<h2>Rating</h2><p>On a scale from 1–10, how typically successful are you in competitive environments?</p>","slider_start":5,"response":9,"trial_type":"html-slider-response","trial_index":3,"time_elapsed":32800,"internal_node_id":"0.0-3.0"},{"rt":null,"stimulus":"\n        <p style=\"font-size: 20px;\">Loading...</p>\n        <img src=\"experiments/sortablerank/loading.gif\" style=\"width: 100px; height: 100px;\">","response":null,"trial_type":"html-keyboard-response","trial_index":4,"time_elapsed":34803,"internal_node_id":"0.0-4.0"},{"view_history":[{"page_index":0,"viewing_time":2557},{"page_index":1,"viewing_time":1758}],"rt":4315,"condition":0,"trial_type":"instructions","trial_index":5,"time_elapsed":39119,"internal_node_id":"0.0-5.0"},{"rt":null,"stimulus":"\n        <p style=\"font-size: 20px;\">One moment. We are sorting you into a lobby.</p>\n        <img src=\"experiments/sortablerank/loading.gif\" style=\"width: 100px; height: 100px;\">","response":null,"trial_type":"html-keyboard-response","trial_index":6,"time_elapsed":43122,"internal_node_id":"0.0-6.0"},{"view_history":[{"page_index":0,"viewing_time":2460}],"rt":2461,"condition":0,"trial_type":"instructions","trial_index":7,"time_elapsed":45583,"internal_node_id":"0.0-7.0"},{"rt":21408,"stimulus":"<div class=\"trial-container\"><div class=\"character-container\">\n            <img src=\"https://raw.githubusercontent.com/githubpsyche/images/main/characters/Age_39_female_south-asian/cdf_IF-676_south-asian_female_49.jpg\" alt=\"Character south-asian female\">\n            <div>\n                <p>Race: South Asian</p>\n                <p>Sex: Female</p>\n                <p>Age: 49</p>\n            </div>\n        </div><div class=\"character-container\">\n            <img src=\"https://raw.githubusercontent.com/githubpsyche/images/main/characters/Age_39_male_black/cdf_BM-212_black_male_41.jpg\" alt=\"Character black male\">\n            <div>\n                <p>Race: Black</p>\n                <p>Sex: Male</p>\n                <p>Age: 41</p>\n            </div>\n        </div></div>","response":1,"left_index":2,"right_index":7,"left_image":"https://raw.githubusercontent.com/githubpsyche/images/main/characters/Age_39_female_south-asian/cdf_IF-676_south-asian_female_49.jpg","right_image":"https://raw.githubusercontent.com/githubpsyche/images/main/characters/Age_39_male_black/cdf_BM-212_black_male_41.jpg","trial_type":"html-button-response","trial_index":8,"time_elapsed":66993,"internal_node_id":"0.0-8.0","choice":"right","winner":7,"loser":2},{"rt":1405,"stimulus":"<div class=\"trial-container\"><div class=\"character-container\">\n            <img src=\"https://raw.githubusercontent.com/githubpsyche/images/main/characters/Age_39_female_east-asian/cdf_AF-231_east-asian_female_47.jpg\" alt=\"Character east-asian female\">\n            <div>\n                <p>Race: East Asian</p>\n                <p>Sex: Female</p>\n                <p>Age: 47</p>\n            </div>\n        </div><div class=\"character-container\">\n            <img src=\"https://raw.githubusercontent.com/githubpsyche/images/main/characters/Age_39_male_white/cdf_WM-221_white_male_41.jpg\" alt=\"Character white male\">\n            <div>\n                <p>Race: White</p>\n                <p>Sex: Male</p>\n                <p>Age: 41</p>\n            </div>\n        </div></div>","response":1,"left_index":6,"right_index":8,"left_image":"https://raw.githubusercontent.com/githubpsyche/images/main/characters/Age_39_female_east-asian/cdf_AF-231_east-asian_female_47.jpg","right_image":"https://raw.githubusercontent.com/githubpsyche/images/main/characters/Age_39_male_white/cdf_WM-221_white_male_41.jpg","trial_type":"html-button-response","trial_index":9,"time_elapsed":68400,"internal_node_id":"0.0-9.0","choice":"right","winner":8,"loser":6},{"rt":2208,"stimulus":"<div class=\"trial-container\"><div class=\"character-container\">\n            <img src=\"https://raw.githubusercontent.com/githubpsyche/images/main/characters/Age_32-38_female_black/cdf_BF-213_black_female_36.jpg\" alt=\"Character black female\">\n            <div>\n                <p>Race: Black</p>\n                <p>Sex: Female</p>\n                <p>Age: 36</p>\n            </div>\n        </div><div class=\"character-container\">\n            <img src=\"https://raw.githubusercontent.com/githubpsyche/images/main/characters/Age_24_male_latino/cdf_LM-209_latino_male_22.jpg\" alt=\"Character latino male\">\n            <div>\n                <p>Race: Latino</p>\n                <p>Sex: Male</p>\n                <p>Age: 22</p>\n            </div>\n        </div></div>","response":1,"left_index":3,"right_index":5,"left_image":"https://raw.githubusercontent.com/githubpsyche/images/main/characters/Age_32-38_female_black/cdf_BF-213_black_female_36.jpg","right_image":"https://raw.githubusercontent.com/githubpsyche/images/main/characters/Age_24_male_latino/cdf_LM-209_latino_male_22.jpg","trial_type":"html-button-response","trial_index":10,"time_elapsed":70610,"internal_node_id":"0.0-10.0","choice":"right","winner":5,"loser":3},{"rt":1662,"stimulus":"<div class=\"trial-container\"><div class=\"character-container\">\n            <img src=\"https://raw.githubusercontent.com/githubpsyche/images/main/characters/Age_39_female_east-asian/cdf_AF-231_east-asian_female_47.jpg\" alt=\"Character east-asian female\">\n            <div>\n                <p>Race: East Asian</p>\n                <p>Sex: Female</p>\n                <p>Age: 47</p>\n            </div>\n        </div><div class=\"character-container\">\n            <img src=\"https://raw.githubusercontent.com/githubpsyche/images/main/characters/Age_39_male_black/cdf_BM-212_black_male_41.jpg\" alt=\"Character black male\">\n            <div>\n                <p>Race: Black</p>\n                <p>Sex: Male</p>\n                <p>Age: 41</p>\n            </div>\n        </div></div>","response":0,"left_index":6,"right_index":7,"left_image":"https://raw.githubusercontent.com/githubpsyche/images/main/characters/Age_39_female_east-asian/cdf_AF-231_east-asian_female_47.jpg","right_image":"https://raw.githubusercontent.com/githubpsyche/images/main/characters/Age_39_male_black/cdf_BM-212_black_male_41.jpg","trial_type":"html-button-response","trial_index":11,"time_elapsed":72274,"internal_node_id":"0.0-11.0","choice":"left","winner":6,"loser":7},{"rt":3430,"stimulus":"<div class=\"trial-container\"><div class=\"character-container\">\n            <img src=\"https://raw.githubusercontent.com/githubpsyche/images/main/characters/Age_24_female_black/cdf_BF-042_black_female_21.jpg\" alt=\"Character black female\">\n            <div>\n                <p>Race: Black</p>\n                <p>Sex: Female</p>\n                <p>Age: 21</p>\n            </div>\n        </div><div class=\"character-container\">\n            <img src=\"https://raw.githubusercontent.com/githubpsyche/images/main/characters/Age_32-38_female_black/cdf_BF-213_black_female_36.jpg\" alt=\"Character black female\">\n            <div>\n                <p>Race: Black</p>\n                <p>Sex: Female</p>\n                <p>Age: 36</p>\n            </div>\n        </div></div>","response":0,"left_index":0,"right_index":3,"left_image":"https://raw.githubusercontent.com/githubpsyche/images/main/characters/Age_24_female_black/cdf_BF-042_black_female_21.jpg","right_image":"https://raw.githubusercontent.com/githubpsyche/images/main/characters/Age_32-38_female_black/cdf_BF-213_black_female_36.jpg","trial_type":"html-button-response","trial_index":12,"time_elapsed":75705,"internal_node_id":"0.0-12.0","choice":"left","winner":0,"loser":3},{"rt":2254,"stimulus":"<div class=\"trial-container\"><div class=\"character-container\">\n            <img src=\"https://raw.githubusercontent.com/githubpsyche/images/main/characters/Age_32-38_female_latino/cdf_LF-224_latino_female_32.jpg\" alt=\"Character latino female\">\n            <div>\n                <p>Race: Latino</p>\n                <p>Sex: Female</p>\n                <p>Age: 32</p>\n            </div>\n        </div><div class=\"character-container\">\n            <img src=\"https://raw.githubusercontent.com/githubpsyche/images/main/characters/Age_39_female_east-asian/cdf_AF-231_east-asian_female_47.jpg\" alt=\"Character east-asian female\">\n            <div>\n                <p>Race: East Asian</p>\n                <p>Sex: Female</p>\n                <p>Age: 47</p>\n            </div>\n        </div></div>","response":1,"left_index":4,"right_index":6,"left_image":"https://raw.githubusercontent.com/githubpsyche/images/main/characters/Age_32-38_female_latino/cdf_LF-224_latino_female_32.jpg","right_image":"https://raw.githubusercontent.com/githubpsyche/images/main/characters/Age_39_female_east-asian/cdf_AF-231_east-asian_female_47.jpg","trial_type":"html-button-response","trial_index":13,"time_elapsed":77961,"internal_node_id":"0.0-13.0","choice":"right","winner":6,"loser":4},{"rt":2055,"stimulus":"<div class=\"trial-container\"><div class=\"character-container\">\n            <img src=\"https://raw.githubusercontent.com/githubpsyche/images/main/characters/Age_24_female_latino/cdf_LF-242_latino_female_23.jpg\" alt=\"Character latino female\">\n            <div>\n                <p>Race: Latino</p>\n                <p>Sex: Female</p>\n                <p>Age: 23</p>\n            </div>\n        </div><div class=\"character-container\">\n            <img src=\"https://raw.githubusercontent.com/githubpsyche/images/main/characters/Age_39_female_south-asian/cdf_IF-676_south-asian_female_49.jpg\" alt=\"Character south-asian female\">\n            <div>\n                <p>Race: South Asian</p>\n                <p>Sex: Female</p>\n                <p>Age: 49</p>\n            </div>\n        </div></div>","response":0,"left_index":1,"right_index":2,"left_image":"https://raw.githubusercontent.com/githubpsyche/images/main/characters/Age_24_female_latino/cdf_LF-242_latino_female_23.jpg","right_image":"https://raw.githubusercontent.com/githubpsyche/images/main/characters/Age_39_female_south-asian/cdf_IF-676_south-asian_female_49.jpg","trial_type":"html-button-response","trial_index":14,"time_elapsed":80018,"internal_node_id":"0.0-14.0","choice":"left","winner":1,"loser":2},{"rt":1190,"stimulus":"<div class=\"trial-container\"><div class=\"character-container\">\n            <img src=\"https://raw.githubusercontent.com/githubpsyche/images/main/characters/Age_24_female_black/cdf_BF-042_black_female_21.jpg\" alt=\"Character black female\">\n            <div>\n                <p>Race: Black</p>\n                <p>Sex: Female</p>\n                <p>Age: 21</p>\n            </div>\n        </div><div class=\"character-container\">\n            <img src=\"https://raw.githubusercontent.com/githubpsyche/images/main/characters/Age_39_female_east-asian/cdf_AF-231_east-asian_female_47.jpg\" alt=\"Character east-asian female\">\n            <div>\n                <p>Race: East Asian</p>\n                <p>Sex: Female</p>\n                <p>Age: 47</p>\n            </div>\n        </div></div>","response":1,"left_index":0,"right_index":6,"left_image":"https://raw.githubusercontent.com/githubpsyche/images/main/characters/Age_24_female_black/cdf_BF-042_black_female_21.jpg","right_image":"https://raw.githubusercontent.com/githubpsyche/images/main/characters/Age_39_female_east-asian/cdf_AF-231_east-asian_female_47.jpg","trial_type":"html-button-response","trial_index":15,"time_elapsed":81210,"internal_node_id":"0.0-15.0","choice":"right","winner":6,"loser":0},{"rt":1983,"stimulus":"<div class=\"trial-container\"><div class=\"character-container\">\n            <img src=\"https://raw.githubusercontent.com/githubpsyche/images/main/characters/Age_39_female_south-asian/cdf_IF-676_south-asian_female_49.jpg\" alt=\"Character south-asian female\">\n            <div>\n                <p>Race: South Asian</p>\n                <p>Sex: Female</p>\n                <p>Age: 49</p>\n            </div>\n        </div><div class=\"character-container\">\n            <img src=\"https://raw.githubusercontent.com/githubpsyche/images/main/characters/Age_32-38_female_black/cdf_BF-213_black_female_36.jpg\" alt=\"Character black female\">\n            <div>\n                <p>Race: Black</p>\n                <p>Sex: Female</p>\n                <p>Age: 36</p>\n            </div>\n        </div></div>","response":0,"left_index":2,"right_index":3,"left_image":"https://raw.githubusercontent.com/githubpsyche/images/main/characters/Age_39_female_south-asian/cdf_IF-676_south-asian_female_49.jpg","right_image":"https://raw.githubusercontent.com/githubpsyche/images/main/characters/Age_32-38_female_black/cdf_BF-213_black_female_36.jpg","trial_type":"html-button-response","trial_index":16,"time_elapsed":83195,"internal_node_id":"0.0-16.0","choice":"left","winner":2,"loser":3},{"rt":1153,"stimulus":"<div class=\"trial-container\"><div class=\"character-container\">\n            <img src=\"https://raw.githubusercontent.com/githubpsyche/images/main/characters/Age_24_female_latino/cdf_LF-242_latino_female_23.jpg\" alt=\"Character latino female\">\n            <div>\n                <p>Race: Latino</p>\n                <p>Sex: Female</p>\n                <p>Age: 23</p>\n            </div>\n        </div><div class=\"character-container\">\n            <img src=\"https://raw.githubusercontent.com/githubpsyche/images/main/characters/Age_39_male_white/cdf_WM-221_white_male_41.jpg\" alt=\"Character white male\">\n            <div>\n                <p>Race: White</p>\n                <p>Sex: Male</p>\n                <p>Age: 41</p>\n            </div>\n        </div></div>","response":1,"left_index":1,"right_index":8,"left_image":"https://raw.githubusercontent.com/githubpsyche/images/main/characters/Age_24_female_latino/cdf_LF-242_latino_female_23.jpg","right_image":"https://raw.githubusercontent.com/githubpsyche/images/main/characters/Age_39_male_white/cdf_WM-221_white_male_41.jpg","trial_type":"html-button-response","trial_index":17,"time_elapsed":84349,"internal_node_id":"0.0-17.0","choice":"right","winner":8,"loser":1},{"rt":1761,"stimulus":"<div class=\"trial-container\"><div class=\"character-container\">\n            <img src=\"https://raw.githubusercontent.com/githubpsyche/images/main/characters/Age_24_male_latino/cdf_LM-209_latino_male_22.jpg\" alt=\"Character latino male\">\n            <div>\n                <p>Race: Latino</p>\n                <p>Sex: Male</p>\n                <p>Age: 22</p>\n            </div>\n        </div><div class=\"character-container\">\n            <img src=\"https://raw.githubusercontent.com/githubpsyche/images/main/characters/Age_39_female_east-asian/cdf_AF-231_east-asian_female_47.jpg\" alt=\"Character east-asian female\">\n            <div>\n                <p>Race: East Asian</p>\n                <p>Sex: Female</p>\n                <p>Age: 47</p>\n            </div>\n        </div></div>","response":1,"left_index":5,"right_index":6,"left_image":"https://raw.githubusercontent.com/githubpsyche/images/main/characters/Age_24_male_latino/cdf_LM-209_latino_male_22.jpg","right_image":"https://raw.githubusercontent.com/githubpsyche/images/main/characters/Age_39_female_east-asian/cdf_AF-231_east-asian_female_47.jpg","trial_type":"html-button-response","trial_index":18,"time_elapsed":86113,"internal_node_id":"0.0-18.0","choice":"right","winner":6,"loser":5},{"rt":1800,"stimulus":"<div class=\"trial-container\"><div class=\"character-container\">\n            <img src=\"https://raw.githubusercontent.com/githubpsyche/images/main/characters/Age_32-38_female_black/cdf_BF-213_black_female_36.jpg\" alt=\"Character black female\">\n            <div>\n                <p>Race: Black</p>\n                <p>Sex: Female</p>\n                <p>Age: 36</p>\n            </div>\n        </div><div class=\"character-container\">\n            <img src=\"https://raw.githubusercontent.com/githubpsyche/images/main/characters/Age_39_male_black/cdf_BM-212_black_male_41.jpg\" alt=\"Character black male\">\n            <div>\n                <p>Race: Black</p>\n                <p>Sex: Male</p>\n                <p>Age: 41</p>\n            </div>\n        </div></div>","response":1,"left_index":3,"right_index":7,"left_image":"https://raw.githubusercontent.com/githubpsyche/images/main/characters/Age_32-38_female_black/cdf_BF-213_black_female_36.jpg","right_image":"https://raw.githubusercontent.com/githubpsyche/images/main/characters/Age_39_male_black/cdf_BM-212_black_male_41.jpg","trial_type":"html-button-response","trial_index":19,"time_elapsed":87913,"internal_node_id":"0.0-19.0","choice":"right","winner":7,"loser":3},{"rt":1504,"stimulus":"<div class=\"trial-container\"><div class=\"character-container\">\n            <img src=\"https://raw.githubusercontent.com/githubpsyche/images/main/characters/Age_24_female_black/cdf_BF-042_black_female_21.jpg\" alt=\"Character black female\">\n            <div>\n                <p>Race: Black</p>\n                <p>Sex: Female</p>\n                <p>Age: 21</p>\n            </div>\n        </div><div class=\"character-container\">\n            <img src=\"https://raw.githubusercontent.com/githubpsyche/images/main/characters/Age_24_male_latino/cdf_LM-209_latino_male_22.jpg\" alt=\"Character latino male\">\n            <div>\n                <p>Race: Latino</p>\n                <p>Sex: Male</p>\n                <p>Age: 22</p>\n            </div>\n        </div></div>","response":1,"left_index":0,"right_index":5,"left_image":"https://raw.githubusercontent.com/githubpsyche/images/main/characters/Age_24_female_black/cdf_BF-042_black_female_21.jpg","right_image":"https://raw.githubusercontent.com/githubpsyche/images/main/characters/Age_24_male_latino/cdf_LM-209_latino_male_22.jpg","trial_type":"html-button-response","trial_index":20,"time_elapsed":89419,"internal_node_id":"0.0-20.0","choice":"right","winner":5,"loser":0},{"rt":1220,"stimulus":"<div class=\"trial-container\"><div class=\"character-container\">\n            <img src=\"https://raw.githubusercontent.com/githubpsyche/images/main/characters/Age_32-38_female_black/cdf_BF-213_black_female_36.jpg\" alt=\"Character black female\">\n            <div>\n                <p>Race: Black</p>\n                <p>Sex: Female</p>\n                <p>Age: 36</p>\n            </div>\n        </div><div class=\"character-container\">\n            <img src=\"https://raw.githubusercontent.com/githubpsyche/images/main/characters/Age_39_female_east-asian/cdf_AF-231_east-asian_female_47.jpg\" alt=\"Character east-asian female\">\n            <div>\n                <p>Race: East Asian</p>\n                <p>Sex: Female</p>\n                <p>Age: 47</p>\n            </div>\n        </div></div>","response":1,"left_index":3,"right_index":6,"left_image":"https://raw.githubusercontent.com/githubpsyche/images/main/characters/Age_32-38_female_black/cdf_BF-213_black_female_36.jpg","right_image":"https://raw.githubusercontent.com/githubpsyche/images/main/characters/Age_39_female_east-asian/cdf_AF-231_east-asian_female_47.jpg","trial_type":"html-button-response","trial_index":21,"time_elapsed":90640,"internal_node_id":"0.0-21.0","choice":"right","winner":6,"loser":3},{"rt":1280,"stimulus":"<div class=\"trial-container\"><div class=\"character-container\">\n            <img src=\"https://raw.githubusercontent.com/githubpsyche/images/main/characters/Age_24_female_black/cdf_BF-042_black_female_21.jpg\" alt=\"Character black female\">\n            <div>\n                <p>Race: Black</p>\n                <p>Sex: Female</p>\n                <p>Age: 21</p>\n            </div>\n        </div><div class=\"character-container\">\n            <img src=\"https://raw.githubusercontent.com/githubpsyche/images/main/characters/Age_24_female_latino/cdf_LF-242_latino_female_23.jpg\" alt=\"Character latino female\">\n            <div>\n                <p>Race: Latino</p>\n                <p>Sex: Female</p>\n                <p>Age: 23</p>\n            </div>\n        </div></div>","response":1,"left_index":0,"right_index":1,"left_image":"https://raw.githubusercontent.com/githubpsyche/images/main/characters/Age_24_female_black/cdf_BF-042_black_female_21.jpg","right_image":"https://raw.githubusercontent.com/githubpsyche/images/main/characters/Age_24_female_latino/cdf_LF-242_latino_female_23.jpg","trial_type":"html-button-response","trial_index":22,"time_elapsed":91922,"internal_node_id":"0.0-22.0","choice":"right","winner":1,"loser":0},{"rt":1261,"stimulus":"<div class=\"trial-container\"><div class=\"character-container\">\n            <img src=\"https://raw.githubusercontent.com/githubpsyche/images/main/characters/Age_24_male_latino/cdf_LM-209_latino_male_22.jpg\" alt=\"Character latino male\">\n            <div>\n                <p>Race: Latino</p>\n                <p>Sex: Male</p>\n                <p>Age: 22</p>\n            </div>\n        </div><div class=\"character-container\">\n            <img src=\"https://raw.githubusercontent.com/githubpsyche/images/main/characters/Age_39_male_white/cdf_WM-221_white_male_41.jpg\" alt=\"Character white male\">\n            <div>\n                <p>Race: White</p>\n                <p>Sex: Male</p>\n                <p>Age: 41</p>\n            </div>\n        </div></div>","response":1,"left_index":5,"right_index":8,"left_image":"https://raw.githubusercontent.com/githubpsyche/images/main/characters/Age_24_male_latino/cdf_LM-209_latino_male_22.jpg","right_image":"https://raw.githubusercontent.com/githubpsyche/images/main/characters/Age_39_male_white/cdf_WM-221_white_male_41.jpg","trial_type":"html-button-response","trial_index":23,"time_elapsed":93184,"internal_node_id":"0.0-23.0","choice":"right","winner":8,"loser":5},{"rt":1216,"stimulus":"<div class=\"trial-container\"><div class=\"character-container\">\n            <img src=\"https://raw.githubusercontent.com/githubpsyche/images/main/characters/Age_24_female_latino/cdf_LF-242_latino_female_23.jpg\" alt=\"Character latino female\">\n            <div>\n                <p>Race: Latino</p>\n                <p>Sex: Female</p>\n                <p>Age: 23</p>\n            </div>\n        </div><div class=\"character-container\">\n            <img src=\"https://raw.githubusercontent.com/githubpsyche/images/main/characters/Age_39_male_black/cdf_BM-212_black_male_41.jpg\" alt=\"Character black male\">\n            <div>\n                <p>Race: Black</p>\n                <p>Sex: Male</p>\n                <p>Age: 41</p>\n            </div>\n        </div></div>","response":0,"left_index":1,"right_index":7,"left_image":"https://raw.githubusercontent.com/githubpsyche/images/main/characters/Age_24_female_latino/cdf_LF-242_latino_female_23.jpg","right_image":"https://raw.githubusercontent.com/githubpsyche/images/main/characters/Age_39_male_black/cdf_BM-212_black_male_41.jpg","trial_type":"html-button-response","trial_index":24,"time_elapsed":94401,"internal_node_id":"0.0-24.0","choice":"left","winner":1,"loser":7},{"rt":2454,"stimulus":"<div class=\"trial-container\"><div class=\"character-container\">\n            <img src=\"https://raw.githubusercontent.com/githubpsyche/images/main/characters/Age_24_female_black/cdf_BF-042_black_female_21.jpg\" alt=\"Character black female\">\n            <div>\n                <p>Race: Black</p>\n                <p>Sex: Female</p>\n                <p>Age: 21</p>\n            </div>\n        </div><div class=\"character-container\">\n            <img src=\"https://raw.githubusercontent.com/githubpsyche/images/main/characters/Age_39_female_south-asian/cdf_IF-676_south-asian_female_49.jpg\" alt=\"Character south-asian female\">\n            <div>\n                <p>Race: South Asian</p>\n                <p>Sex: Female</p>\n                <p>Age: 49</p>\n            </div>\n        </div></div>","response":1,"left_index":0,"right_index":2,"left_image":"https://raw.githubusercontent.com/githubpsyche/images/main/characters/Age_24_female_black/cdf_BF-042_black_female_21.jpg","right_image":"https://raw.githubusercontent.com/githubpsyche/images/main/characters/Age_39_female_south-asian/cdf_IF-676_south-asian_female_49.jpg","trial_type":"html-button-response","trial_index":25,"time_elapsed":96856,"internal_node_id":"0.0-25.0","choice":"right","winner":2,"loser":0},{"rt":1103,"stimulus":"<div class=\"trial-container\"><div class=\"character-container\">\n            <img src=\"https://raw.githubusercontent.com/githubpsyche/images/main/characters/Age_24_female_latino/cdf_LF-242_latino_female_23.jpg\" alt=\"Character latino female\">\n            <div>\n                <p>Race: Latino</p>\n                <p>Sex: Female</p>\n                <p>Age: 23</p>\n            </div>\n        </div><div class=\"character-container\">\n            <img src=\"https://raw.githubusercontent.com/githubpsyche/images/main/characters/Age_24_male_latino/cdf_LM-209_latino_male_22.jpg\" alt=\"Character latino male\">\n            <div>\n                <p>Race: Latino</p>\n                <p>Sex: Male</p>\n                <p>Age: 22</p>\n            </div>\n        </div></div>","response":1,"left_index":1,"right_index":5,"left_image":"https://raw.githubusercontent.com/githubpsyche/images/main/characters/Age_24_female_latino/cdf_LF-242_latino_female_23.jpg","right_image":"https://raw.githubusercontent.com/githubpsyche/images/main/characters/Age_24_male_latino/cdf_LM-209_latino_male_22.jpg","trial_type":"html-button-response","trial_index":26,"time_elapsed":97961,"internal_node_id":"0.0-26.0","choice":"right","winner":5,"loser":1},{"rt":1297,"stimulus":"<div class=\"trial-container\"><div class=\"character-container\">\n            <img src=\"https://raw.githubusercontent.com/githubpsyche/images/main/characters/Age_24_female_black/cdf_BF-042_black_female_21.jpg\" alt=\"Character black female\">\n            <div>\n                <p>Race: Black</p>\n                <p>Sex: Female</p>\n                <p>Age: 21</p>\n            </div>\n        </div><div class=\"character-container\">\n            <img src=\"https://raw.githubusercontent.com/githubpsyche/images/main/characters/Age_39_male_black/cdf_BM-212_black_male_41.jpg\" alt=\"Character black male\">\n            <div>\n                <p>Race: Black</p>\n                <p>Sex: Male</p>\n                <p>Age: 41</p>\n            </div>\n        </div></div>","response":1,"left_index":0,"right_index":7,"left_image":"https://raw.githubusercontent.com/githubpsyche/images/main/characters/Age_24_female_black/cdf_BF-042_black_female_21.jpg","right_image":"https://raw.githubusercontent.com/githubpsyche/images/main/characters/Age_39_male_black/cdf_BM-212_black_male_41.jpg","trial_type":"html-button-response","trial_index":27,"time_elapsed":99259,"internal_node_id":"0.0-27.0","choice":"right","winner":7,"loser":0},{"rt":964,"stimulus":"<div class=\"trial-container\"><div class=\"character-container\">\n            <img src=\"https://raw.githubusercontent.com/githubpsyche/images/main/characters/Age_39_female_south-asian/cdf_IF-676_south-asian_female_49.jpg\" alt=\"Character south-asian female\">\n            <div>\n                <p>Race: South Asian</p>\n                <p>Sex: Female</p>\n                <p>Age: 49</p>\n            </div>\n        </div><div class=\"character-container\">\n            <img src=\"https://raw.githubusercontent.com/githubpsyche/images/main/characters/Age_24_male_latino/cdf_LM-209_latino_male_22.jpg\" alt=\"Character latino male\">\n            <div>\n                <p>Race: Latino</p>\n                <p>Sex: Male</p>\n                <p>Age: 22</p>\n            </div>\n        </div></div>","response":1,"left_index":2,"right_index":5,"left_image":"https://raw.githubusercontent.com/githubpsyche/images/main/characters/Age_39_female_south-asian/cdf_IF-676_south-asian_female_49.jpg","right_image":"https://raw.githubusercontent.com/githubpsyche/images/main/characters/Age_24_male_latino/cdf_LM-209_latino_male_22.jpg","trial_type":"html-button-response","trial_index":28,"time_elapsed":100224,"internal_node_id":"0.0-28.0","choice":"right","winner":5,"loser":2},{"rt":930,"stimulus":"<div class=\"trial-container\"><div class=\"character-container\">\n            <img src=\"https://raw.githubusercontent.com/githubpsyche/images/main/characters/Age_39_male_black/cdf_BM-212_black_male_41.jpg\" alt=\"Character black male\">\n            <div>\n                <p>Race: Black</p>\n                <p>Sex: Male</p>\n                <p>Age: 41</p>\n            </div>\n        </div><div class=\"character-container\">\n            <img src=\"https://raw.githubusercontent.com/githubpsyche/images/main/characters/Age_39_male_white/cdf_WM-221_white_male_41.jpg\" alt=\"Character white male\">\n            <div>\n                <p>Race: White</p>\n                <p>Sex: Male</p>\n                <p>Age: 41</p>\n            </div>\n        </div></div>","response":1,"left_index":7,"right_index":8,"left_image":"https://raw.githubusercontent.com/githubpsyche/images/main/characters/Age_39_male_black/cdf_BM-212_black_male_41.jpg","right_image":"https://raw.githubusercontent.com/githubpsyche/images/main/characters/Age_39_male_white/cdf_WM-221_white_male_41.jpg","trial_type":"html-button-response","trial_index":29,"time_elapsed":101155,"internal_node_id":"0.0-29.0","choice":"right","winner":8,"loser":7},{"rt":1027,"stimulus":"<div class=\"trial-container\"><div class=\"character-container\">\n            <img src=\"https://raw.githubusercontent.com/githubpsyche/images/main/characters/Age_24_female_black/cdf_BF-042_black_female_21.jpg\" alt=\"Character black female\">\n            <div>\n                <p>Race: Black</p>\n                <p>Sex: Female</p>\n                <p>Age: 21</p>\n            </div>\n        </div><div class=\"character-container\">\n            <img src=\"https://raw.githubusercontent.com/githubpsyche/images/main/characters/Age_32-38_female_latino/cdf_LF-224_latino_female_32.jpg\" alt=\"Character latino female\">\n            <div>\n                <p>Race: Latino</p>\n                <p>Sex: Female</p>\n                <p>Age: 32</p>\n            </div>\n        </div></div>","response":1,"left_index":0,"right_index":4,"left_image":"https://raw.githubusercontent.com/githubpsyche/images/main/characters/Age_24_female_black/cdf_BF-042_black_female_21.jpg","right_image":"https://raw.githubusercontent.com/githubpsyche/images/main/characters/Age_32-38_female_latino/cdf_LF-224_latino_female_32.jpg","trial_type":"html-button-response","trial_index":30,"time_elapsed":102184,"internal_node_id":"0.0-30.0","choice":"right","winner":4,"loser":0},{"rt":752,"stimulus":"<div class=\"trial-container\"><div class=\"character-container\">\n            <img src=\"https://raw.githubusercontent.com/githubpsyche/images/main/characters/Age_32-38_female_black/cdf_BF-213_black_female_36.jpg\" alt=\"Character black female\">\n            <div>\n                <p>Race: Black</p>\n                <p>Sex: Female</p>\n                <p>Age: 36</p>\n            </div>\n        </div><div class=\"character-container\">\n            <img src=\"https://raw.githubusercontent.com/githubpsyche/images/main/characters/Age_39_male_white/cdf_WM-221_white_male_41.jpg\" alt=\"Character white male\">\n            <div>\n                <p>Race: White</p>\n                <p>Sex: Male</p>\n                <p>Age: 41</p>\n            </div>\n        </div></div>","response":1,"left_index":3,"right_index":8,"left_image":"https://raw.githubusercontent.com/githubpsyche/images/main/characters/Age_32-38_female_black/cdf_BF-213_black_female_36.jpg","right_image":"https://raw.githubusercontent.com/githubpsyche/images/main/characters/Age_39_male_white/cdf_WM-221_white_male_41.jpg","trial_type":"html-button-response","trial_index":31,"time_elapsed":102937,"internal_node_id":"0.0-31.0","choice":"right","winner":8,"loser":3},{"rt":630,"stimulus":"<div class=\"trial-container\"><div class=\"character-container\">\n            <img src=\"https://raw.githubusercontent.com/githubpsyche/images/main/characters/Age_24_female_latino/cdf_LF-242_latino_female_23.jpg\" alt=\"Character latino female\">\n            <div>\n                <p>Race: Latino</p>\n                <p>Sex: Female</p>\n                <p>Age: 23</p>\n            </div>\n        </div><div class=\"character-container\">\n            <img src=\"https://raw.githubusercontent.com/githubpsyche/images/main/characters/Age_32-38_female_latino/cdf_LF-224_latino_female_32.jpg\" alt=\"Character latino female\">\n            <div>\n                <p>Race: Latino</p>\n                <p>Sex: Female</p>\n                <p>Age: 32</p>\n            </div>\n        </div></div>","response":1,"left_index":1,"right_index":4,"left_image":"https://raw.githubusercontent.com/githubpsyche/images/main/characters/Age_24_female_latino/cdf_LF-242_latino_female_23.jpg","right_image":"https://raw.githubusercontent.com/githubpsyche/images/main/characters/Age_32-38_female_latino/cdf_LF-224_latino_female_32.jpg","trial_type":"html-button-response","trial_index":32,"time_elapsed":103569,"internal_node_id":"0.0-32.0","choice":"right","winner":4,"loser":1},{"rt":623,"stimulus":"<div class=\"trial-container\"><div class=\"character-container\">\n            <img src=\"https://raw.githubusercontent.com/githubpsyche/images/main/characters/Age_39_female_south-asian/cdf_IF-676_south-asian_female_49.jpg\" alt=\"Character south-asian female\">\n            <div>\n                <p>Race: South Asian</p>\n                <p>Sex: Female</p>\n                <p>Age: 49</p>\n            </div>\n        </div><div class=\"character-container\">\n            <img src=\"https://raw.githubusercontent.com/githubpsyche/images/main/characters/Age_39_female_east-asian/cdf_AF-231_east-asian_female_47.jpg\" alt=\"Character east-asian female\">\n            <div>\n                <p>Race: East Asian</p>\n                <p>Sex: Female</p>\n                <p>Age: 47</p>\n            </div>\n        </div></div>","response":1,"left_index":2,"right_index":6,"left_image":"https://raw.githubusercontent.com/githubpsyche/images/main/characters/Age_39_female_south-asian/cdf_IF-676_south-asian_female_49.jpg","right_image":"https://raw.githubusercontent.com/githubpsyche/images/main/characters/Age_39_female_east-asian/cdf_AF-231_east-asian_female_47.jpg","trial_type":"html-button-response","trial_index":33,"time_elapsed":104193,"internal_node_id":"0.0-33.0","choice":"right","winner":6,"loser":2},{"rt":1176,"stimulus":"<div class=\"trial-container\"><div class=\"character-container\">\n            <img src=\"https://raw.githubusercontent.com/githubpsyche/images/main/characters/Age_32-38_female_latino/cdf_LF-224_latino_female_32.jpg\" alt=\"Character latino female\">\n            <div>\n                <p>Race: Latino</p>\n                <p>Sex: Female</p>\n                <p>Age: 32</p>\n            </div>\n        </div><div class=\"character-container\">\n            <img src=\"https://raw.githubusercontent.com/githubpsyche/images/main/characters/Age_39_male_black/cdf_BM-212_black_male_41.jpg\" alt=\"Character black male\">\n            <div>\n                <p>Race: Black</p>\n                <p>Sex: Male</p>\n                <p>Age: 41</p>\n            </div>\n        </div></div>","response":0,"left_index":4,"right_index":7,"left_image":"https://raw.githubusercontent.com/githubpsyche/images/main/characters/Age_32-38_female_latino/cdf_LF-224_latino_female_32.jpg","right_image":"https://raw.githubusercontent.com/githubpsyche/images/main/characters/Age_39_male_black/cdf_BM-212_black_male_41.jpg","trial_type":"html-button-response","trial_index":34,"time_elapsed":105371,"internal_node_id":"0.0-34.0","choice":"left","winner":4,"loser":7},{"rt":655,"stimulus":"<div class=\"trial-container\"><div class=\"character-container\">\n            <img src=\"https://raw.githubusercontent.com/githubpsyche/images/main/characters/Age_24_female_black/cdf_BF-042_black_female_21.jpg\" alt=\"Character black female\">\n            <div>\n                <p>Race: Black</p>\n                <p>Sex: Female</p>\n                <p>Age: 21</p>\n            </div>\n        </div><div class=\"character-container\">\n            <img src=\"https://raw.githubusercontent.com/githubpsyche/images/main/characters/Age_39_male_white/cdf_WM-221_white_male_41.jpg\" alt=\"Character white male\">\n            <div>\n                <p>Race: White</p>\n                <p>Sex: Male</p>\n                <p>Age: 41</p>\n            </div>\n        </div></div>","response":0,"left_index":0,"right_index":8,"left_image":"https://raw.githubusercontent.com/githubpsyche/images/main/characters/Age_24_female_black/cdf_BF-042_black_female_21.jpg","right_image":"https://raw.githubusercontent.com/githubpsyche/images/main/characters/Age_39_male_white/cdf_WM-221_white_male_41.jpg","trial_type":"html-button-response","trial_index":35,"time_elapsed":106026,"internal_node_id":"0.0-35.0","choice":"left","winner":0,"loser":8},{"rt":1034,"stimulus":"<div class=\"trial-container\"><div class=\"character-container\">\n            <img src=\"https://raw.githubusercontent.com/githubpsyche/images/main/characters/Age_32-38_female_black/cdf_BF-213_black_female_36.jpg\" alt=\"Character black female\">\n            <div>\n                <p>Race: Black</p>\n                <p>Sex: Female</p>\n                <p>Age: 36</p>\n            </div>\n        </div><div class=\"character-container\">\n            <img src=\"https://raw.githubusercontent.com/githubpsyche/images/main/characters/Age_32-38_female_latino/cdf_LF-224_latino_female_32.jpg\" alt=\"Character latino female\">\n            <div>\n                <p>Race: Latino</p>\n                <p>Sex: Female</p>\n                <p>Age: 32</p>\n            </div>\n        </div></div>","response":1,"left_index":3,"right_index":4,"left_image":"https://raw.githubusercontent.com/githubpsyche/images/main/characters/Age_32-38_female_black/cdf_BF-213_black_female_36.jpg","right_image":"https://raw.githubusercontent.com/githubpsyche/images/main/characters/Age_32-38_female_latino/cdf_LF-224_latino_female_32.jpg","trial_type":"html-button-response","trial_index":36,"time_elapsed":107062,"internal_node_id":"0.0-36.0","choice":"right","winner":4,"loser":3},{"rt":1026,"stimulus":"<div class=\"trial-container\"><div class=\"character-container\">\n            <img src=\"https://raw.githubusercontent.com/githubpsyche/images/main/characters/Age_39_female_south-asian/cdf_IF-676_south-asian_female_49.jpg\" alt=\"Character south-asian female\">\n            <div>\n                <p>Race: South Asian</p>\n                <p>Sex: Female</p>\n                <p>Age: 49</p>\n            </div>\n        </div><div class=\"character-container\">\n            <img src=\"https://raw.githubusercontent.com/githubpsyche/images/main/characters/Age_39_male_white/cdf_WM-221_white_male_41.jpg\" alt=\"Character white male\">\n            <div>\n                <p>Race: White</p>\n                <p>Sex: Male</p>\n                <p>Age: 41</p>\n            </div>\n        </div></div>","response":1,"left_index":2,"right_index":8,"left_image":"https://raw.githubusercontent.com/githubpsyche/images/main/characters/Age_39_female_south-asian/cdf_IF-676_south-asian_female_49.jpg","right_image":"https://raw.githubusercontent.com/githubpsyche/images/main/characters/Age_39_male_white/cdf_WM-221_white_male_41.jpg","trial_type":"html-button-response","trial_index":37,"time_elapsed":108089,"internal_node_id":"0.0-37.0","choice":"right","winner":8,"loser":2},{"rt":1590,"stimulus":"<div class=\"trial-container\"><div class=\"character-container\">\n            <img src=\"https://raw.githubusercontent.com/githubpsyche/images/main/characters/Age_32-38_female_latino/cdf_LF-224_latino_female_32.jpg\" alt=\"Character latino female\">\n            <div>\n                <p>Race: Latino</p>\n                <p>Sex: Female</p>\n                <p>Age: 32</p>\n            </div>\n        </div><div class=\"character-container\">\n            <img src=\"https://raw.githubusercontent.com/githubpsyche/images/main/characters/Age_24_male_latino/cdf_LM-209_latino_male_22.jpg\" alt=\"Character latino male\">\n            <div>\n                <p>Race: Latino</p>\n                <p>Sex: Male</p>\n                <p>Age: 22</p>\n            </div>\n        </div></div>","response":0,"left_index":4,"right_index":5,"left_image":"https://raw.githubusercontent.com/githubpsyche/images/main/characters/Age_32-38_female_latino/cdf_LF-224_latino_female_32.jpg","right_image":"https://raw.githubusercontent.com/githubpsyche/images/main/characters/Age_24_male_latino/cdf_LM-209_latino_male_22.jpg","trial_type":"html-button-response","trial_index":38,"time_elapsed":109680,"internal_node_id":"0.0-38.0","choice":"left","winner":4,"loser":5},{"rt":1136,"stimulus":"<div class=\"trial-container\"><div class=\"character-container\">\n            <img src=\"https://raw.githubusercontent.com/githubpsyche/images/main/characters/Age_24_female_latino/cdf_LF-242_latino_female_23.jpg\" alt=\"Character latino female\">\n            <div>\n                <p>Race: Latino</p>\n                <p>Sex: Female</p>\n                <p>Age: 23</p>\n            </div>\n        </div><div class=\"character-container\">\n            <img src=\"https://raw.githubusercontent.com/githubpsyche/images/main/characters/Age_39_female_east-asian/cdf_AF-231_east-asian_female_47.jpg\" alt=\"Character east-asian female\">\n            <div>\n                <p>Race: East Asian</p>\n                <p>Sex: Female</p>\n                <p>Age: 47</p>\n            </div>\n        </div></div>","response":1,"left_index":1,"right_index":6,"left_image":"https://raw.githubusercontent.com/githubpsyche/images/main/characters/Age_24_female_latino/cdf_LF-242_latino_female_23.jpg","right_image":"https://raw.githubusercontent.com/githubpsyche/images/main/characters/Age_39_female_east-asian/cdf_AF-231_east-asian_female_47.jpg","trial_type":"html-button-response","trial_index":39,"time_elapsed":110817,"internal_node_id":"0.0-39.0","choice":"right","winner":6,"loser":1},{"rt":1463,"stimulus":"<div class=\"trial-container\"><div class=\"character-container\">\n            <img src=\"https://raw.githubusercontent.com/githubpsyche/images/main/characters/Age_32-38_female_latino/cdf_LF-224_latino_female_32.jpg\" alt=\"Character latino female\">\n            <div>\n                <p>Race: Latino</p>\n                <p>Sex: Female</p>\n                <p>Age: 32</p>\n            </div>\n        </div><div class=\"character-container\">\n            <img src=\"https://raw.githubusercontent.com/githubpsyche/images/main/characters/Age_39_male_white/cdf_WM-221_white_male_41.jpg\" alt=\"Character white male\">\n            <div>\n                <p>Race: White</p>\n                <p>Sex: Male</p>\n                <p>Age: 41</p>\n            </div>\n        </div></div>","response":0,"left_index":4,"right_index":8,"left_image":"https://raw.githubusercontent.com/githubpsyche/images/main/characters/Age_32-38_female_latino/cdf_LF-224_latino_female_32.jpg","right_image":"https://raw.githubusercontent.com/githubpsyche/images/main/characters/Age_39_male_white/cdf_WM-221_white_male_41.jpg","trial_type":"html-button-response","trial_index":40,"time_elapsed":112283,"internal_node_id":"0.0-40.0","choice":"left","winner":4,"loser":8},{"rt":2450,"stimulus":"<div class=\"trial-container\"><div class=\"character-container\">\n            <img src=\"https://raw.githubusercontent.com/githubpsyche/images/main/characters/Age_24_male_latino/cdf_LM-209_latino_male_22.jpg\" alt=\"Character latino male\">\n            <div>\n                <p>Race: Latino</p>\n                <p>Sex: Male</p>\n                <p>Age: 22</p>\n            </div>\n        </div><div class=\"character-container\">\n            <img src=\"https://raw.githubusercontent.com/githubpsyche/images/main/characters/Age_39_male_black/cdf_BM-212_black_male_41.jpg\" alt=\"Character black male\">\n            <div>\n                <p>Race: Black</p>\n                <p>Sex: Male</p>\n                <p>Age: 41</p>\n            </div>\n        </div></div>","response":0,"left_index":5,"right_index":7,"left_image":"https://raw.githubusercontent.com/githubpsyche/images/main/characters/Age_24_male_latino/cdf_LM-209_latino_male_22.jpg","right_image":"https://raw.githubusercontent.com/githubpsyche/images/main/characters/Age_39_male_black/cdf_BM-212_black_male_41.jpg","trial_type":"html-button-response","trial_index":41,"time_elapsed":114739,"internal_node_id":"0.0-41.0","choice":"left","winner":5,"loser":7},{"rt":3143,"stimulus":"<div class=\"trial-container\"><div class=\"character-container\">\n            <img src=\"https://raw.githubusercontent.com/githubpsyche/images/main/characters/Age_39_female_south-asian/cdf_IF-676_south-asian_female_49.jpg\" alt=\"Character south-asian female\">\n            <div>\n                <p>Race: South Asian</p>\n                <p>Sex: Female</p>\n                <p>Age: 49</p>\n            </div>\n        </div><div class=\"character-container\">\n            <img src=\"https://raw.githubusercontent.com/githubpsyche/images/main/characters/Age_32-38_female_latino/cdf_LF-224_latino_female_32.jpg\" alt=\"Character latino female\">\n            <div>\n                <p>Race: Latino</p>\n                <p>Sex: Female</p>\n                <p>Age: 32</p>\n            </div>\n        </div></div>","response":1,"left_index":2,"right_index":4,"left_image":"https://raw.githubusercontent.com/githubpsyche/images/main/characters/Age_39_female_south-asian/cdf_IF-676_south-asian_female_49.jpg","right_image":"https://raw.githubusercontent.com/githubpsyche/images/main/characters/Age_32-38_female_latino/cdf_LF-224_latino_female_32.jpg","trial_type":"html-button-response","trial_index":42,"time_elapsed":117883,"internal_node_id":"0.0-42.0","choice":"right","winner":4,"loser":2},{"rt":1180,"stimulus":"<div class=\"trial-container\"><div class=\"character-container\">\n            <img src=\"https://raw.githubusercontent.com/githubpsyche/images/main/characters/Age_24_female_latino/cdf_LF-242_latino_female_23.jpg\" alt=\"Character latino female\">\n            <div>\n                <p>Race: Latino</p>\n                <p>Sex: Female</p>\n                <p>Age: 23</p>\n            </div>\n        </div><div class=\"character-container\">\n            <img src=\"https://raw.githubusercontent.com/githubpsyche/images/main/characters/Age_32-38_female_black/cdf_BF-213_black_female_36.jpg\" alt=\"Character black female\">\n            <div>\n                <p>Race: Black</p>\n                <p>Sex: Female</p>\n                <p>Age: 36</p>\n            </div>\n        </div></div>","response":0,"left_index":1,"right_index":3,"left_image":"https://raw.githubusercontent.com/githubpsyche/images/main/characters/Age_24_female_latino/cdf_LF-242_latino_female_23.jpg","right_image":"https://raw.githubusercontent.com/githubpsyche/images/main/characters/Age_32-38_female_black/cdf_BF-213_black_female_36.jpg","trial_type":"html-button-response","trial_index":43,"time_elapsed":119065,"internal_node_id":"0.0-43.0","choice":"left","winner":1,"loser":3},{"rt":null,"stimulus":"\n        <p style=\"font-size: 20px;\">Loading...</p>\n        <img src=\"experiments/sortablerank/loading.gif\" style=\"width: 100px; height: 100px;\">","response":null,"trial_type":"html-keyboard-response","trial_index":44,"time_elapsed":121067,"internal_node_id":"0.0-44.0"},{"view_history":[{"page_index":0,"viewing_time":4188}],"rt":4188,"condition":0,"trial_type":"instructions","trial_index":45,"time_elapsed":125256,"internal_node_id":"0.0-45.0"},{"unsorted_items":[],"team_left_items":[{"index":9,"label":"https://raw.githubusercontent.com/githubpsyche/images/main/characters/Age_39_male_white/cdf_WM-221_white_male_41.jpg","content":"\n            <img src=\"https://raw.githubusercontent.com/githubpsyche/images/main/characters/Age_39_male_white/cdf_WM-221_white_male_41.jpg\" alt=\"Character white male\">\n            <div>\n                <p>Race: White</p>\n                <p>Sex: Male</p>\n                <p>Age: 41</p>\n            </div>\n        "},{"index":7,"label":"https://raw.githubusercontent.com/githubpsyche/images/main/characters/Age_39_female_east-asian/cdf_AF-231_east-asian_female_47.jpg","content":"\n            <img src=\"https://raw.githubusercontent.com/githubpsyche/images/main/characters/Age_39_female_east-asian/cdf_AF-231_east-asian_female_47.jpg\" alt=\"Character east-asian female\">\n            <div>\n                <p>Race: East Asian</p>\n                <p>Sex: Female</p>\n                <p>Age: 47</p>\n            </div>\n        "},{"index":5,"label":"https://raw.githubusercontent.com/githubpsyche/images/main/characters/Age_32-38_female_latino/cdf_LF-224_latino_female_32.jpg","content":"\n            <img src=\"https://raw.githubusercontent.com/githubpsyche/images/main/characters/Age_32-38_female_latino/cdf_LF-224_latino_female_32.jpg\" alt=\"Character latino female\">\n            <div>\n                <p>Race: Latino</p>\n                <p>Sex: Female</p>\n                <p>Age: 32</p>\n            </div>\n        "},{"index":1,"label":"https://raw.githubusercontent.com/githubpsyche/images/main/characters/Age_24_female_black/cdf_BF-042_black_female_21.jpg","content":"\n            <img src=\"https://raw.githubusercontent.com/githubpsyche/images/main/characters/Age_24_female_black/cdf_BF-042_black_female_21.jpg\" alt=\"Character black female\">\n            <div>\n                <p>Race: Black</p>\n                <p>Sex: Female</p>\n                <p>Age: 21</p>\n            </div>\n        "},{"index":"locked","label":"locked","content":"<span class=\"rank-number\">5</span><span class=\"lock-icon\">🔒</span><div>\n            <img src=\"experiments/sortablerank/user.png\" alt=\"Participant\">\n            <div>\n                <p><strong>You (Leader)</strong></p>\n            </div>\n        </div>"}],"team_right_items":[{"index":4,"label":"https://raw.githubusercontent.com/githubpsyche/images/main/characters/Age_32-38_female_black/cdf_BF-213_black_female_36.jpg","content":"\n            <img src=\"https://raw.githubusercontent.com/githubpsyche/images/main/characters/Age_32-38_female_black/cdf_BF-213_black_female_36.jpg\" alt=\"Character black female\">\n            <div>\n                <p>Race: Black</p>\n                <p>Sex: Female</p>\n                <p>Age: 36</p>\n            </div>\n        "},{"index":2,"label":"https://raw.githubusercontent.com/githubpsyche/images/main/characters/Age_24_female_latino/cdf_LF-242_latino_female_23.jpg","content":"\n            <img src=\"https://raw.githubusercontent.com/githubpsyche/images/main/characters/Age_24_female_latino/cdf_LF-242_latino_female_23.jpg\" alt=\"Character latino female\">\n            <div>\n                <p>Race: Latino</p>\n                <p>Sex: Female</p>\n                <p>Age: 23</p>\n            </div>\n        "},{"index":8,"label":"https://raw.githubusercontent.com/githubpsyche/images/main/characters/Age_39_male_black/cdf_BM-212_black_male_41.jpg","content":"\n            <img src=\"https://raw.githubusercontent.com/githubpsyche/images/main/characters/Age_39_male_black/cdf_BM-212_black_male_41.jpg\" alt=\"Character black male\">\n            <div>\n                <p>Race: Black</p>\n                <p>Sex: Male</p>\n                <p>Age: 41</p>\n            </div>\n        "},{"index":6,"label":"https://raw.githubusercontent.com/githubpsyche/images/main/characters/Age_24_male_latino/cdf_LM-209_latino_male_22.jpg","content":"\n            <img src=\"https://raw.githubusercontent.com/githubpsyche/images/main/characters/Age_24_male_latino/cdf_LM-209_latino_male_22.jpg\" alt=\"Character latino male\">\n            <div>\n                <p>Race: Latino</p>\n                <p>Sex: Male</p>\n                <p>Age: 22</p>\n            </div>\n        "},{"index":3,"label":"https://raw.githubusercontent.com/githubpsyche/images/main/characters/Age_39_female_south-asian/cdf_IF-676_south-asian_female_49.jpg","content":"\n            <img src=\"https://raw.githubusercontent.com/githubpsyche/images/main/characters/Age_39_female_south-asian/cdf_IF-676_south-asian_female_49.jpg\" alt=\"Character south-asian female\">\n            <div>\n                <p>Race: South Asian</p>\n                <p>Sex: Female</p>\n                <p>Age: 49</p>\n            </div>\n        "}],"trial_type":"sortable-rank","trial_index":46,"time_elapsed":174993,"internal_node_id":"0.0-46.0"},{"rt":3955,"response":{"deception":"yes"},"trial_type":"survey-html-form","trial_index":47,"time_elapsed":178949,"internal_node_id":"0.0-47.0"},{"view_history":[{"page_index":0,"viewing_time":9662}],"rt":9662,"trial_type":"instructions","trial_index":48,"time_elapsed":188612,"internal_node_id":"0.0-48.0"}]
