[{"view_history":[{"page_index":0,"viewing_time":2451}],"rt":2451,"trial_type":"instructions","trial_index":0,"time_elapsed":2452,"internal_node_id":"0.0-0.0"},{"view_history":[{"page_index":0,"viewing_time":2335}],"rt":2335,"trial_type":"instructions","trial_index":1,"time_elapsed":4788,"internal_node_id":"0.0-1.0"},{"rt":13115,"response":{"race":"South Asian","gender":"man","age":"18","college":"yes"},"trial_type":"survey-html-form","trial_index":2,"time_elapsed":17906,"internal_node_id":"0.0-2.0"},{"rt":4544,"stimulus":"<h2>Rating</h2><p>On a scale from 1–10, how typically successful are you in competitive environments?</p>","slider_start":5,"response":8,"trial_type":"html-slider-response","trial_index":3,"time_elapsed":22457,"internal_node_id":"0.0-3.0"},{"rt":null,"stimulus":"\n        <p style=\"font-size: 20px;\">Loading...</p>\n        <img src=\"experiments/sortablerank/loading.gif\" style=\"width: 100px; height: 100px;\">","response":null,"trial_type":"html-keyboard-response","trial_index":4,"time_elapsed":23466,"internal_node_id":"0.0-4.0"},{"view_history":[{"page_index":0,"viewing_time":12670},{"page_index":1,"viewing_time":8982},{"page_index":2,"viewing_time":9417}],"rt":31069,"trial_type":"instructions","trial_index":5,"time_elapsed":54535,"internal_node_id":"0.0-5.0"},{"rt":null,"stimulus":"\n        <p style=\"font-size: 20px;\">One moment. We are sorting you into a lobby.</p>\n        <img src=\"experiments/sortablerank/loading.gif\" style=\"width: 100px; height: 100px;\">","response":null,"trial_type":"html-keyboard-response","trial_index":6,"time_elapsed":57543,"internal_node_id":"0.0-6.0"},{"rt":10308,"stimulus":"<div class=\"trial-container\"><div class=\"character-container\">\n            <img src=\"https://raw.githubusercontent.com/githubpsyche/images/main/characters/Age_39_female_south-asian/cdf_IF-737_south-asian_female_51.jpg\" alt=\"Character south-asian female\">\n            <div>\n                <p>Race: South Asian</p>\n                <p>Sex: Female</p>\n                <p>Age: 51</p>\n            </div>\n        </div><div class=\"character-container\">\n            <img src=\"https://raw.githubusercontent.com/githubpsyche/images/main/characters/Age_39_male_south-asian/cdf_IM-635_south-asian_male_44.jpg\" alt=\"Character south-asian male\">\n            <div>\n                <p>Race: South Asian</p>\n                <p>Sex: Male</p>\n                <p>Age: 44</p>\n            </div>\n        </div></div>","response":0,"left_index":3,"right_index":6,"left_image":"https://raw.githubusercontent.com/githubpsyche/images/main/characters/Age_39_female_south-asian/cdf_IF-737_south-asian_female_51.jpg","right_image":"https://raw.githubusercontent.com/githubpsyche/images/main/characters/Age_39_male_south-asian/cdf_IM-635_south-asian_male_44.jpg","trial_type":"html-button-response","trial_index":7,"time_elapsed":67867,"internal_node_id":"0.0-7.0","choice":"left","winner":3,"loser":6},{"rt":4030,"stimulus":"<div class=\"trial-container\"><div class=\"character-container\">\n            <img src=\"https://raw.githubusercontent.com/githubpsyche/images/main/characters/Age_39_male_white/cdf_WM-221_white_male_41.jpg\" alt=\"Character white male\">\n            <div>\n                <p>Race: White</p>\n                <p>Sex: Male</p>\n                <p>Age: 41</p>\n            </div>\n        </div><div class=\"character-container\">\n            <img src=\"https://raw.githubusercontent.com/githubpsyche/images/main/characters/Age_39_female_latino/cdf_LF-233_latino_female_48.jpg\" alt=\"Character latino female\">\n            <div>\n                <p>Race: Latino</p>\n                <p>Sex: Female</p>\n                <p>Age: 48</p>\n            </div>\n        </div></div>","response":0,"left_index":7,"right_index":8,"left_image":"https://raw.githubusercontent.com/githubpsyche/images/main/characters/Age_39_male_white/cdf_WM-221_white_male_41.jpg","right_image":"https://raw.githubusercontent.com/githubpsyche/images/main/characters/Age_39_female_latino/cdf_LF-233_latino_female_48.jpg","trial_type":"html-button-response","trial_index":8,"time_elapsed":71902,"internal_node_id":"0.0-8.0","choice":"left","winner":7,"loser":8},{"rt":5749,"stimulus":"<div class=\"trial-container\"><div class=\"character-container\">\n            <img src=\"https://raw.githubusercontent.com/githubpsyche/images/main/characters/Age_24_male_black/cdf_BM-009_black_male_18.jpg\" alt=\"Character black male\">\n            <div>\n                <p>Race: Black</p>\n                <p>Sex: Male</p>\n                <p>Age: 18</p>\n            </div>\n        </div><div class=\"character-container\">\n            <img src=\"https://raw.githubusercontent.com/githubpsyche/images/main/characters/Age_39_male_south-asian/cdf_IM-635_south-asian_male_44.jpg\" alt=\"Character south-asian male\">\n            <div>\n                <p>Race: South Asian</p>\n                <p>Sex: Male</p>\n                <p>Age: 44</p>\n            </div>\n        </div></div>","response":0,"left_index":4,"right_index":6,"left_image":"https://raw.githubusercontent.com/githubpsyche/images/main/characters/Age_24_male_black/cdf_BM-009_black_male_18.jpg","right_image":"https://raw.githubusercontent.com/githubpsyche/images/main/characters/Age_39_male_south-asian/cdf_IM-635_south-asian_male_44.jpg","trial_type":"html-button-response","trial_index":9,"time_elapsed":77652,"internal_node_id":"0.0-9.0","choice":"left","winner":4,"loser":6},{"rt":4200,"stimulus":"<div class=\"trial-container\"><div class=\"character-container\">\n            <img src=\"https://raw.githubusercontent.com/githubpsyche/images/main/characters/Age_25-31_male_white/cdf_WM-032_white_male_25.jpg\" alt=\"Character white male\">\n            <div>\n                <p>Race: White</p>\n                <p>Sex: Male</p>\n                <p>Age: 25</p>\n            </div>\n        </div><div class=\"character-container\">\n            <img src=\"https://raw.githubusercontent.com/githubpsyche/images/main/characters/Age_24_male_east-asian/cdf_AM-210_east-asian_male_21.jpg\" alt=\"Character east-asian male\">\n            <div>\n                <p>Race: East Asian</p>\n                <p>Sex: Male</p>\n                <p>Age: 21</p>\n            </div>\n        </div></div>","response":1,"left_index":2,"right_index":5,"left_image":"https://raw.githubusercontent.com/githubpsyche/images/main/characters/Age_25-31_male_white/cdf_WM-032_white_male_25.jpg","right_image":"https://raw.githubusercontent.com/githubpsyche/images/main/characters/Age_24_male_east-asian/cdf_AM-210_east-asian_male_21.jpg","trial_type":"html-button-response","trial_index":10,"time_elapsed":81853,"internal_node_id":"0.0-10.0","choice":"right","winner":5,"loser":2},{"rt":4245,"stimulus":"<div class=\"trial-container\"><div class=\"character-container\">\n            <img src=\"https://raw.githubusercontent.com/githubpsyche/images/main/characters/Age_25-31_female_white/cdf_WF-008_white_female_30.jpg\" alt=\"Character white female\">\n            <div>\n                <p>Race: White</p>\n                <p>Sex: Female</p>\n                <p>Age: 30</p>\n            </div>\n        </div><div class=\"character-container\">\n            <img src=\"https://raw.githubusercontent.com/githubpsyche/images/main/characters/Age_39_male_white/cdf_WM-221_white_male_41.jpg\" alt=\"Character white male\">\n            <div>\n                <p>Race: White</p>\n                <p>Sex: Male</p>\n                <p>Age: 41</p>\n            </div>\n        </div></div>","response":1,"left_index":1,"right_index":7,"left_image":"https://raw.githubusercontent.com/githubpsyche/images/main/characters/Age_25-31_female_white/cdf_WF-008_white_female_30.jpg","right_image":"https://raw.githubusercontent.com/githubpsyche/images/main/characters/Age_39_male_white/cdf_WM-221_white_male_41.jpg","trial_type":"html-button-response","trial_index":11,"time_elapsed":86102,"internal_node_id":"0.0-11.0","choice":"right","winner":7,"loser":1},{"rt":2483,"stimulus":"<div class=\"trial-container\"><div class=\"character-container\">\n            <img src=\"https://raw.githubusercontent.com/githubpsyche/images/main/characters/Age_24_male_black/cdf_BM-009_black_male_18.jpg\" alt=\"Character black male\">\n            <div>\n                <p>Race: Black</p>\n                <p>Sex: Male</p>\n                <p>Age: 18</p>\n            </div>\n        </div><div class=\"character-container\">\n            <img src=\"https://raw.githubusercontent.com/githubpsyche/images/main/characters/Age_39_female_latino/cdf_LF-233_latino_female_48.jpg\" alt=\"Character latino female\">\n            <div>\n                <p>Race: Latino</p>\n                <p>Sex: Female</p>\n                <p>Age: 48</p>\n            </div>\n        </div></div>","response":0,"left_index":4,"right_index":8,"left_image":"https://raw.githubusercontent.com/githubpsyche/images/main/characters/Age_24_male_black/cdf_BM-009_black_male_18.jpg","right_image":"https://raw.githubusercontent.com/githubpsyche/images/main/characters/Age_39_female_latino/cdf_LF-233_latino_female_48.jpg","trial_type":"html-button-response","trial_index":12,"time_elapsed":88588,"internal_node_id":"0.0-12.0","choice":"left","winner":4,"loser":8},{"rt":4663,"stimulus":"<div class=\"trial-container\"><div class=\"character-container\">\n            <img src=\"https://raw.githubusercontent.com/githubpsyche/images/main/characters/Age_24_male_east-asian/cdf_AM-210_east-asian_male_21.jpg\" alt=\"Character east-asian male\">\n            <div>\n                <p>Race: East Asian</p>\n                <p>Sex: Male</p>\n                <p>Age: 21</p>\n            </div>\n        </div><div class=\"character-container\">\n            <img src=\"https://raw.githubusercontent.com/githubpsyche/images/main/characters/Age_39_male_white/cdf_WM-221_white_male_41.jpg\" alt=\"Character white male\">\n            <div>\n                <p>Race: White</p>\n                <p>Sex: Male</p>\n                <p>Age: 41</p>\n            </div>\n        </div></div>","response":0,"left_index":5,"right_index":7,"left_image":"https://raw.githubusercontent.com/githubpsyche/images/main/characters/Age_24_male_east-asian/cdf_AM-210_east-asian_male_21.jpg","right_image":"https://raw.githubusercontent.com/githubpsyche/images/main/characters/Age_39_male_white/cdf_WM-221_white_male_41.jpg","trial_type":"html-button-response","trial_index":13,"time_elapsed":93252,"internal_node_id":"0.0-13.0","choice":"left","winner":5,"loser":7},{"rt":5218,"stimulus":"<div class=\"trial-container\"><div class=\"character-container\">\n            <img src=\"https://raw.githubusercontent.com/githubpsyche/images/main/characters/Age_24_female_black/cdf_BF-030_black_female_23.jpg\" alt=\"Character black female\">\n            <div>\n                <p>Race: Black</p>\n                <p>Sex: Female</p>\n                <p>Age: 23</p>\n            </div>\n        </div><div class=\"character-container\">\n            <img src=\"https://raw.githubusercontent.com/githubpsyche/images/main/characters/Age_39_female_south-asian/cdf_IF-737_south-asian_female_51.jpg\" alt=\"Character south-asian female\">\n            <div>\n                <p>Race: South Asian</p>\n                <p>Sex: Female</p>\n                <p>Age: 51</p>\n            </div>\n        </div></div>","response":1,"left_index":0,"right_index":3,"left_image":"https://raw.githubusercontent.com/githubpsyche/images/main/characters/Age_24_female_black/cdf_BF-030_black_female_23.jpg","right_image":"https://raw.githubusercontent.com/githubpsyche/images/main/characters/Age_39_female_south-asian/cdf_IF-737_south-asian_female_51.jpg","trial_type":"html-button-response","trial_index":14,"time_elapsed":98473,"internal_node_id":"0.0-14.0","choice":"right","winner":3,"loser":0},{"rt":5841,"stimulus":"<div class=\"trial-container\"><div class=\"character-container\">\n            <img src=\"https://raw.githubusercontent.com/githubpsyche/images/main/characters/Age_24_male_east-asian/cdf_AM-210_east-asian_male_21.jpg\" alt=\"Character east-asian male\">\n            <div>\n                <p>Race: East Asian</p>\n                <p>Sex: Male</p>\n                <p>Age: 21</p>\n            </div>\n        </div><div class=\"character-container\">\n            <img src=\"https://raw.githubusercontent.com/githubpsyche/images/main/characters/Age_39_female_latino/cdf_LF-233_latino_female_48.jpg\" alt=\"Character latino female\">\n            <div>\n                <p>Race: Latino</p>\n                <p>Sex: Female</p>\n                <p>Age: 48</p>\n            </div>\n        </div></div>","response":0,"left_index":5,"right_index":8,"left_image":"https://raw.githubusercontent.com/githubpsyche/images/main/characters/Age_24_male_east-asian/cdf_AM-210_east-asian_male_21.jpg","right_image":"https://raw.githubusercontent.com/githubpsyche/images/main/characters/Age_39_female_latino/cdf_LF-233_latino_female_48.jpg","trial_type":"html-button-response","trial_index":15,"time_elapsed":104320,"internal_node_id":"0.0-15.0","choice":"left","winner":5,"loser":8},{"rt":3014,"stimulus":"<div class=\"trial-container\"><div class=\"character-container\">\n            <img src=\"https://raw.githubusercontent.com/githubpsyche/images/main/characters/Age_25-31_male_white/cdf_WM-032_white_male_25.jpg\" alt=\"Character white male\">\n            <div>\n                <p>Race: White</p>\n                <p>Sex: Male</p>\n                <p>Age: 25</p>\n            </div>\n        </div><div class=\"character-container\">\n            <img src=\"https://raw.githubusercontent.com/githubpsyche/images/main/characters/Age_39_male_south-asian/cdf_IM-635_south-asian_male_44.jpg\" alt=\"Character south-asian male\">\n            <div>\n                <p>Race: South Asian</p>\n                <p>Sex: Male</p>\n                <p>Age: 44</p>\n            </div>\n        </div></div>","response":0,"left_index":2,"right_index":6,"left_image":"https://raw.githubusercontent.com/githubpsyche/images/main/characters/Age_25-31_male_white/cdf_WM-032_white_male_25.jpg","right_image":"https://raw.githubusercontent.com/githubpsyche/images/main/characters/Age_39_male_south-asian/cdf_IM-635_south-asian_male_44.jpg","trial_type":"html-button-response","trial_index":16,"time_elapsed":107334,"internal_node_id":"0.0-16.0","choice":"left","winner":2,"loser":6},{"rt":2799,"stimulus":"<div class=\"trial-container\"><div class=\"character-container\">\n            <img src=\"https://raw.githubusercontent.com/githubpsyche/images/main/characters/Age_39_female_south-asian/cdf_IF-737_south-asian_female_51.jpg\" alt=\"Character south-asian female\">\n            <div>\n                <p>Race: South Asian</p>\n                <p>Sex: Female</p>\n                <p>Age: 51</p>\n            </div>\n        </div><div class=\"character-container\">\n            <img src=\"https://raw.githubusercontent.com/githubpsyche/images/main/characters/Age_39_female_latino/cdf_LF-233_latino_female_48.jpg\" alt=\"Character latino female\">\n            <div>\n                <p>Race: Latino</p>\n                <p>Sex: Female</p>\n                <p>Age: 48</p>\n            </div>\n        </div></div>","response":0,"left_index":3,"right_index":8,"left_image":"https://raw.githubusercontent.com/githubpsyche/images/main/characters/Age_39_female_south-asian/cdf_IF-737_south-asian_female_51.jpg","right_image":"https://raw.githubusercontent.com/githubpsyche/images/main/characters/Age_39_female_latino/cdf_LF-233_latino_female_48.jpg","trial_type":"html-button-response","trial_index":17,"time_elapsed":110134,"internal_node_id":"0.0-17.0","choice":"left","winner":3,"loser":8},{"rt":4283,"stimulus":"<div class=\"trial-container\"><div class=\"character-container\">\n            <img src=\"https://raw.githubusercontent.com/githubpsyche/images/main/characters/Age_24_female_black/cdf_BF-030_black_female_23.jpg\" alt=\"Character black female\">\n            <div>\n                <p>Race: Black</p>\n                <p>Sex: Female</p>\n                <p>Age: 23</p>\n            </div>\n        </div><div class=\"character-container\">\n            <img src=\"https://raw.githubusercontent.com/githubpsyche/images/main/characters/Age_24_male_east-asian/cdf_AM-210_east-asian_male_21.jpg\" alt=\"Character east-asian male\">\n            <div>\n                <p>Race: East Asian</p>\n                <p>Sex: Male</p>\n                <p>Age: 21</p>\n            </div>\n        </div></div>","response":1,"left_index":0,"right_index":5,"left_image":"https://raw.githubusercontent.com/githubpsyche/images/main/characters/Age_24_female_black/cdf_BF-030_black_female_23.jpg","right_image":"https://raw.githubusercontent.com/githubpsyche/images/main/characters/Age_24_male_east-asian/cdf_AM-210_east-asian_male_21.jpg","trial_type":"html-button-response","trial_index":18,"time_elapsed":114419,"internal_node_id":"0.0-18.0","choice":"right","winner":5,"loser":0},{"rt":5016,"stimulus":"<div class=\"trial-container\"><div class=\"character-container\">\n            <img src=\"https://raw.githubusercontent.com/githubpsyche/images/main/characters/Age_39_male_south-asian/cdf_IM-635_south-asian_male_44.jpg\" alt=\"Character south-asian male\">\n            <div>\n                <p>Race: South Asian</p>\n                <p>Sex: Male</p>\n                <p>Age: 44</p>\n            </div>\n        </div><div class=\"character-container\">\n            <img src=\"https://raw.githubusercontent.com/githubpsyche/images/main/characters/Age_39_female_latino/cdf_LF-233_latino_female_48.jpg\" alt=\"Character latino female\">\n            <div>\n                <p>Race: Latino</p>\n                <p>Sex: Female</p>\n                <p>Age: 48</p>\n            </div>\n        </div></div>","response":0,"left_index":6,"right_index":8,"left_image":"https://raw.githubusercontent.com/githubpsyche/images/main/characters/Age_39_male_south-asian/cdf_IM-635_south-asian_male_44.jpg","right_image":"https://raw.githubusercontent.com/githubpsyche/images/main/characters/Age_39_female_latino/cdf_LF-233_latino_female_48.jpg","trial_type":"html-button-response","trial_index":19,"time_elapsed":119435,"internal_node_id":"0.0-19.0","choice":"left","winner":6,"loser":8},{"rt":2833,"stimulus":"<div class=\"trial-container\"><div class=\"character-container\">\n            <img src=\"https://raw.githubusercontent.com/githubpsyche/images/main/characters/Age_39_female_south-asian/cdf_IF-737_south-asian_female_51.jpg\" alt=\"Character south-asian female\">\n            <div>\n                <p>Race: South Asian</p>\n                <p>Sex: Female</p>\n                <p>Age: 51</p>\n            </div>\n        </div><div class=\"character-container\">\n            <img src=\"https://raw.githubusercontent.com/githubpsyche/images/main/characters/Age_24_male_east-asian/cdf_AM-210_east-asian_male_21.jpg\" alt=\"Character east-asian male\">\n            <div>\n                <p>Race: East Asian</p>\n                <p>Sex: Male</p>\n                <p>Age: 21</p>\n            </div>\n        </div></div>","response":1,"left_index":3,"right_index":5,"left_image":"https://raw.githubusercontent.com/githubpsyche/images/main/characters/Age_39_female_south-asian/cdf_IF-737_south-asian_female_51.jpg","right_image":"https://raw.githubusercontent.com/githubpsyche/images/main/characters/Age_24_male_east-asian/cdf_AM-210_east-asian_male_21.jpg","trial_type":"html-button-response","trial_index":20,"time_elapsed":122270,"internal_node_id":"0.0-20.0","choice":"right","winner":5,"loser":3},{"rt":1864,"stimulus":"<div class=\"trial-container\"><div class=\"character-container\">\n            <img src=\"https://raw.githubusercontent.com/githubpsyche/images/main/characters/Age_25-31_male_white/cdf_WM-032_white_male_25.jpg\" alt=\"Character white male\">\n            <div>\n                <p>Race: White</p>\n                <p>Sex: Male</p>\n                <p>Age: 25</p>\n            </div>\n        </div><div class=\"character-container\">\n            <img src=\"https://raw.githubusercontent.com/githubpsyche/images/main/characters/Age_39_female_latino/cdf_LF-233_latino_female_48.jpg\" alt=\"Character latino female\">\n            <div>\n                <p>Race: Latino</p>\n                <p>Sex: Female</p>\n                <p>Age: 48</p>\n            </div>\n        </div></div>","response":0,"left_index":2,"right_index":8,"left_image":"https://raw.githubusercontent.com/githubpsyche/images/main/characters/Age_25-31_male_white/cdf_WM-032_white_male_25.jpg","right_image":"https://raw.githubusercontent.com/githubpsyche/images/main/characters/Age_39_female_latino/cdf_LF-233_latino_female_48.jpg","trial_type":"html-button-response","trial_index":21,"time_elapsed":124137,"internal_node_id":"0.0-21.0","choice":"left","winner":2,"loser":8},{"rt":2248,"stimulus":"<div class=\"trial-container\"><div class=\"character-container\">\n            <img src=\"https://raw.githubusercontent.com/githubpsyche/images/main/characters/Age_25-31_female_white/cdf_WF-008_white_female_30.jpg\" alt=\"Character white female\">\n            <div>\n                <p>Race: White</p>\n                <p>Sex: Female</p>\n                <p>Age: 30</p>\n            </div>\n        </div><div class=\"character-container\">\n            <img src=\"https://raw.githubusercontent.com/githubpsyche/images/main/characters/Age_24_male_east-asian/cdf_AM-210_east-asian_male_21.jpg\" alt=\"Character east-asian male\">\n            <div>\n                <p>Race: East Asian</p>\n                <p>Sex: Male</p>\n                <p>Age: 21</p>\n            </div>\n        </div></div>","response":1,"left_index":1,"right_index":5,"left_image":"https://raw.githubusercontent.com/githubpsyche/images/main/characters/Age_25-31_female_white/cdf_WF-008_white_female_30.jpg","right_image":"https://raw.githubusercontent.com/githubpsyche/images/main/characters/Age_24_male_east-asian/cdf_AM-210_east-asian_male_21.jpg","trial_type":"html-button-response","trial_index":22,"time_elapsed":126385,"internal_node_id":"0.0-22.0","choice":"right","winner":5,"loser":1},{"rt":1833,"stimulus":"<div class=\"trial-container\"><div class=\"character-container\">\n            <img src=\"https://raw.githubusercontent.com/githubpsyche/images/main/characters/Age_24_female_black/cdf_BF-030_black_female_23.jpg\" alt=\"Character black female\">\n            <div>\n                <p>Race: Black</p>\n                <p>Sex: Female</p>\n                <p>Age: 23</p>\n            </div>\n        </div><div class=\"character-container\">\n            <img src=\"https://raw.githubusercontent.com/githubpsyche/images/main/characters/Age_24_male_black/cdf_BM-009_black_male_18.jpg\" alt=\"Character black male\">\n            <div>\n                <p>Race: Black</p>\n                <p>Sex: Male</p>\n                <p>Age: 18</p>\n            </div>\n        </div></div>","response":1,"left_index":0,"right_index":4,"left_image":"https://raw.githubusercontent.com/githubpsyche/images/main/characters/Age_24_female_black/cdf_BF-030_black_female_23.jpg","right_image":"https://raw.githubusercontent.com/githubpsyche/images/main/characters/Age_24_male_black/cdf_BM-009_black_male_18.jpg","trial_type":"html-button-response","trial_index":23,"time_elapsed":128218,"internal_node_id":"0.0-23.0","choice":"right","winner":4,"loser":0},{"rt":3335,"stimulus":"<div class=\"trial-container\"><div class=\"character-container\">\n            <img src=\"https://raw.githubusercontent.com/githubpsyche/images/main/characters/Age_25-31_male_white/cdf_WM-032_white_male_25.jpg\" alt=\"Character white male\">\n            <div>\n                <p>Race: White</p>\n                <p>Sex: Male</p>\n                <p>Age: 25</p>\n            </div>\n        </div><div class=\"character-container\">\n            <img src=\"https://raw.githubusercontent.com/githubpsyche/images/main/characters/Age_39_female_south-asian/cdf_IF-737_south-asian_female_51.jpg\" alt=\"Character south-asian female\">\n            <div>\n                <p>Race: South Asian</p>\n                <p>Sex: Female</p>\n                <p>Age: 51</p>\n            </div>\n        </div></div>","response":0,"left_index":2,"right_index":3,"left_image":"https://raw.githubusercontent.com/githubpsyche/images/main/characters/Age_25-31_male_white/cdf_WM-032_white_male_25.jpg","right_image":"https://raw.githubusercontent.com/githubpsyche/images/main/characters/Age_39_female_south-asian/cdf_IF-737_south-asian_female_51.jpg","trial_type":"html-button-response","trial_index":24,"time_elapsed":131555,"internal_node_id":"0.0-24.0","choice":"left","winner":2,"loser":3},{"rt":2312,"stimulus":"<div class=\"trial-container\"><div class=\"character-container\">\n            <img src=\"https://raw.githubusercontent.com/githubpsyche/images/main/characters/Age_24_female_black/cdf_BF-030_black_female_23.jpg\" alt=\"Character black female\">\n            <div>\n                <p>Race: Black</p>\n                <p>Sex: Female</p>\n                <p>Age: 23</p>\n            </div>\n        </div><div class=\"character-container\">\n            <img src=\"https://raw.githubusercontent.com/githubpsyche/images/main/characters/Age_25-31_female_white/cdf_WF-008_white_female_30.jpg\" alt=\"Character white female\">\n            <div>\n                <p>Race: White</p>\n                <p>Sex: Female</p>\n                <p>Age: 30</p>\n            </div>\n        </div></div>","response":0,"left_index":0,"right_index":1,"left_image":"https://raw.githubusercontent.com/githubpsyche/images/main/characters/Age_24_female_black/cdf_BF-030_black_female_23.jpg","right_image":"https://raw.githubusercontent.com/githubpsyche/images/main/characters/Age_25-31_female_white/cdf_WF-008_white_female_30.jpg","trial_type":"html-button-response","trial_index":25,"time_elapsed":133868,"internal_node_id":"0.0-25.0","choice":"left","winner":0,"loser":1},{"rt":4015,"stimulus":"<div class=\"trial-container\"><div class=\"character-container\">\n            <img src=\"https://raw.githubusercontent.com/githubpsyche/images/main/characters/Age_24_male_black/cdf_BM-009_black_male_18.jpg\" alt=\"Character black male\">\n            <div>\n                <p>Race: Black</p>\n                <p>Sex: Male</p>\n                <p>Age: 18</p>\n            </div>\n        </div><div class=\"character-container\">\n            <img src=\"https://raw.githubusercontent.com/githubpsyche/images/main/characters/Age_39_male_white/cdf_WM-221_white_male_41.jpg\" alt=\"Character white male\">\n            <div>\n                <p>Race: White</p>\n                <p>Sex: Male</p>\n                <p>Age: 41</p>\n            </div>\n        </div></div>","response":0,"left_index":4,"right_index":7,"left_image":"https://raw.githubusercontent.com/githubpsyche/images/main/characters/Age_24_male_black/cdf_BM-009_black_male_18.jpg","right_image":"https://raw.githubusercontent.com/githubpsyche/images/main/characters/Age_39_male_white/cdf_WM-221_white_male_41.jpg","trial_type":"html-button-response","trial_index":26,"time_elapsed":137886,"internal_node_id":"0.0-26.0","choice":"left","winner":4,"loser":7},{"rt":2783,"stimulus":"<div class=\"trial-container\"><div class=\"character-container\">\n            <img src=\"https://raw.githubusercontent.com/githubpsyche/images/main/characters/Age_24_female_black/cdf_BF-030_black_female_23.jpg\" alt=\"Character black female\">\n            <div>\n                <p>Race: Black</p>\n                <p>Sex: Female</p>\n                <p>Age: 23</p>\n            </div>\n        </div><div class=\"character-container\">\n            <img src=\"https://raw.githubusercontent.com/githubpsyche/images/main/characters/Age_39_male_south-asian/cdf_IM-635_south-asian_male_44.jpg\" alt=\"Character south-asian male\">\n            <div>\n                <p>Race: South Asian</p>\n                <p>Sex: Male</p>\n                <p>Age: 44</p>\n            </div>\n        </div></div>","response":0,"left_index":0,"right_index":6,"left_image":"https://raw.githubusercontent.com/githubpsyche/images/main/characters/Age_24_female_black/cdf_BF-030_black_female_23.jpg","right_image":"https://raw.githubusercontent.com/githubpsyche/images/main/characters/Age_39_male_south-asian/cdf_IM-635_south-asian_male_44.jpg","trial_type":"html-button-response","trial_index":27,"time_elapsed":140669,"internal_node_id":"0.0-27.0","choice":"left","winner":0,"loser":6},{"rt":9798,"stimulus":"<div class=\"trial-container\"><div class=\"character-container\">\n            <img src=\"https://raw.githubusercontent.com/githubpsyche/images/main/characters/Age_25-31_female_white/cdf_WF-008_white_female_30.jpg\" alt=\"Character white female\">\n            <div>\n                <p>Race: White</p>\n                <p>Sex: Female</p>\n                <p>Age: 30</p>\n            </div>\n        </div><div class=\"character-container\">\n            <img src=\"https://raw.githubusercontent.com/githubpsyche/images/main/characters/Age_39_female_south-asian/cdf_IF-737_south-asian_female_51.jpg\" alt=\"Character south-asian female\">\n            <div>\n                <p>Race: South Asian</p>\n                <p>Sex: Female</p>\n                <p>Age: 51</p>\n            </div>\n        </div></div>","response":1,"left_index":1,"right_index":3,"left_image":"https://raw.githubusercontent.com/githubpsyche/images/main/characters/Age_25-31_female_white/cdf_WF-008_white_female_30.jpg","right_image":"https://raw.githubusercontent.com/githubpsyche/images/main/characters/Age_39_female_south-asian/cdf_IF-737_south-asian_female_51.jpg","trial_type":"html-button-response","trial_index":28,"time_elapsed":150468,"internal_node_id":"0.0-28.0","choice":"right","winner":3,"loser":1},{"rt":1882,"stimulus":"<div class=\"trial-container\"><div class=\"character-container\">\n            <img src=\"https://raw.githubusercontent.com/githubpsyche/images/main/characters/Age_24_female_black/cdf_BF-030_black_female_23.jpg\" alt=\"Character black female\">\n            <div>\n                <p>Race: Black</p>\n                <p>Sex: Female</p>\n                <p>Age: 23</p>\n            </div>\n        </div><div class=\"character-container\">\n            <img src=\"https://raw.githubusercontent.com/githubpsyche/images/main/characters/Age_39_male_white/cdf_WM-221_white_male_41.jpg\" alt=\"Character white male\">\n            <div>\n                <p>Race: White</p>\n                <p>Sex: Male</p>\n                <p>Age: 41</p>\n            </div>\n        </div></div>","response":1,"left_index":0,"right_index":7,"left_image":"https://raw.githubusercontent.com/githubpsyche/images/main/characters/Age_24_female_black/cdf_BF-030_black_female_23.jpg","right_image":"https://raw.githubusercontent.com/githubpsyche/images/main/characters/Age_39_male_white/cdf_WM-221_white_male_41.jpg","trial_type":"html-button-response","trial_index":29,"time_elapsed":152352,"internal_node_id":"0.0-29.0","choice":"right","winner":7,"loser":0},{"rt":2582,"stimulus":"<div class=\"trial-container\"><div class=\"character-container\">\n            <img src=\"https://raw.githubusercontent.com/githubpsyche/images/main/characters/Age_25-31_female_white/cdf_WF-008_white_female_30.jpg\" alt=\"Character white female\">\n            <div>\n                <p>Race: White</p>\n                <p>Sex: Female</p>\n                <p>Age: 30</p>\n            </div>\n        </div><div class=\"character-container\">\n            <img src=\"https://raw.githubusercontent.com/githubpsyche/images/main/characters/Age_39_male_south-asian/cdf_IM-635_south-asian_male_44.jpg\" alt=\"Character south-asian male\">\n            <div>\n                <p>Race: South Asian</p>\n                <p>Sex: Male</p>\n                <p>Age: 44</p>\n            </div>\n        </div></div>","response":0,"left_index":1,"right_index":6,"left_image":"https://raw.githubusercontent.com/githubpsyche/images/main/characters/Age_25-31_female_white/cdf_WF-008_white_female_30.jpg","right_image":"https://raw.githubusercontent.com/githubpsyche/images/main/characters/Age_39_male_south-asian/cdf_IM-635_south-asian_male_44.jpg","trial_type":"html-button-response","trial_index":30,"time_elapsed":154935,"internal_node_id":"0.0-30.0","choice":"left","winner":1,"loser":6},{"rt":7106,"stimulus":"<div class=\"trial-container\"><div class=\"character-container\">\n            <img src=\"https://raw.githubusercontent.com/githubpsyche/images/main/characters/Age_24_male_black/cdf_BM-009_black_male_18.jpg\" alt=\"Character black male\">\n            <div>\n                <p>Race: Black</p>\n                <p>Sex: Male</p>\n                <p>Age: 18</p>\n            </div>\n        </div><div class=\"character-container\">\n            <img src=\"https://raw.githubusercontent.com/githubpsyche/images/main/characters/Age_24_male_east-asian/cdf_AM-210_east-asian_male_21.jpg\" alt=\"Character east-asian male\">\n            <div>\n                <p>Race: East Asian</p>\n                <p>Sex: Male</p>\n                <p>Age: 21</p>\n            </div>\n        </div></div>","response":1,"left_index":4,"right_index":5,"left_image":"https://raw.githubusercontent.com/githubpsyche/images/main/characters/Age_24_male_black/cdf_BM-009_black_male_18.jpg","right_image":"https://raw.githubusercontent.com/githubpsyche/images/main/characters/Age_24_male_east-asian/cdf_AM-210_east-asian_male_21.jpg","trial_type":"html-button-response","trial_index":31,"time_elapsed":162051,"internal_node_id":"0.0-31.0","choice":"right","winner":5,"loser":4},{"rt":3032,"stimulus":"<div class=\"trial-container\"><div class=\"character-container\">\n            <img src=\"https://raw.githubusercontent.com/githubpsyche/images/main/characters/Age_25-31_female_white/cdf_WF-008_white_female_30.jpg\" alt=\"Character white female\">\n            <div>\n                <p>Race: White</p>\n                <p>Sex: Female</p>\n                <p>Age: 30</p>\n            </div>\n        </div><div class=\"character-container\">\n            <img src=\"https://raw.githubusercontent.com/githubpsyche/images/main/characters/Age_25-31_male_white/cdf_WM-032_white_male_25.jpg\" alt=\"Character white male\">\n            <div>\n                <p>Race: White</p>\n                <p>Sex: Male</p>\n                <p>Age: 25</p>\n            </div>\n        </div></div>","response":1,"left_index":1,"right_index":2,"left_image":"https://raw.githubusercontent.com/githubpsyche/images/main/characters/Age_25-31_female_white/cdf_WF-008_white_female_30.jpg","right_image":"https://raw.githubusercontent.com/githubpsyche/images/main/characters/Age_25-31_male_white/cdf_WM-032_white_male_25.jpg","trial_type":"html-button-response","trial_index":32,"time_elapsed":165085,"internal_node_id":"0.0-32.0","choice":"right","winner":2,"loser":1},{"rt":2200,"stimulus":"<div class=\"trial-container\"><div class=\"character-container\">\n            <img src=\"https://raw.githubusercontent.com/githubpsyche/images/main/characters/Age_39_female_south-asian/cdf_IF-737_south-asian_female_51.jpg\" alt=\"Character south-asian female\">\n            <div>\n                <p>Race: South Asian</p>\n                <p>Sex: Female</p>\n                <p>Age: 51</p>\n            </div>\n        </div><div class=\"character-container\">\n            <img src=\"https://raw.githubusercontent.com/githubpsyche/images/main/characters/Age_24_male_black/cdf_BM-009_black_male_18.jpg\" alt=\"Character black male\">\n            <div>\n                <p>Race: Black</p>\n                <p>Sex: Male</p>\n                <p>Age: 18</p>\n            </div>\n        </div></div>","response":1,"left_index":3,"right_index":4,"left_image":"https://raw.githubusercontent.com/githubpsyche/images/main/characters/Age_39_female_south-asian/cdf_IF-737_south-asian_female_51.jpg","right_image":"https://raw.githubusercontent.com/githubpsyche/images/main/characters/Age_24_male_black/cdf_BM-009_black_male_18.jpg","trial_type":"html-button-response","trial_index":33,"time_elapsed":167286,"internal_node_id":"0.0-33.0","choice":"right","winner":4,"loser":3},{"rt":1712,"stimulus":"<div class=\"trial-container\"><div class=\"character-container\">\n            <img src=\"https://raw.githubusercontent.com/githubpsyche/images/main/characters/Age_39_male_south-asian/cdf_IM-635_south-asian_male_44.jpg\" alt=\"Character south-asian male\">\n            <div>\n                <p>Race: South Asian</p>\n                <p>Sex: Male</p>\n                <p>Age: 44</p>\n            </div>\n        </div><div class=\"character-container\">\n            <img src=\"https://raw.githubusercontent.com/githubpsyche/images/main/characters/Age_39_male_white/cdf_WM-221_white_male_41.jpg\" alt=\"Character white male\">\n            <div>\n                <p>Race: White</p>\n                <p>Sex: Male</p>\n                <p>Age: 41</p>\n            </div>\n        </div></div>","response":1,"left_index":6,"right_index":7,"left_image":"https://raw.githubusercontent.com/githubpsyche/images/main/characters/Age_39_male_south-asian/cdf_IM-635_south-asian_male_44.jpg","right_image":"https://raw.githubusercontent.com/githubpsyche/images/main/characters/Age_39_male_white/cdf_WM-221_white_male_41.jpg","trial_type":"html-button-response","trial_index":34,"time_elapsed":169002,"internal_node_id":"0.0-34.0","choice":"right","winner":7,"loser":6},{"rt":4466,"stimulus":"<div class=\"trial-container\"><div class=\"character-container\">\n            <img src=\"https://raw.githubusercontent.com/githubpsyche/images/main/characters/Age_25-31_male_white/cdf_WM-032_white_male_25.jpg\" alt=\"Character white male\">\n            <div>\n                <p>Race: White</p>\n                <p>Sex: Male</p>\n                <p>Age: 25</p>\n            </div>\n        </div><div class=\"character-container\">\n            <img src=\"https://raw.githubusercontent.com/githubpsyche/images/main/characters/Age_24_male_black/cdf_BM-009_black_male_18.jpg\" alt=\"Character black male\">\n            <div>\n                <p>Race: Black</p>\n                <p>Sex: Male</p>\n                <p>Age: 18</p>\n            </div>\n        </div></div>","response":1,"left_index":2,"right_index":4,"left_image":"https://raw.githubusercontent.com/githubpsyche/images/main/characters/Age_25-31_male_white/cdf_WM-032_white_male_25.jpg","right_image":"https://raw.githubusercontent.com/githubpsyche/images/main/characters/Age_24_male_black/cdf_BM-009_black_male_18.jpg","trial_type":"html-button-response","trial_index":35,"time_elapsed":173468,"internal_node_id":"0.0-35.0","choice":"right","winner":4,"loser":2},{"rt":2833,"stimulus":"<div class=\"trial-container\"><div class=\"character-container\">\n            <img src=\"https://raw.githubusercontent.com/githubpsyche/images/main/characters/Age_24_male_east-asian/cdf_AM-210_east-asian_male_21.jpg\" alt=\"Character east-asian male\">\n            <div>\n                <p>Race: East Asian</p>\n                <p>Sex: Male</p>\n                <p>Age: 21</p>\n            </div>\n        </div><div class=\"character-container\">\n            <img src=\"https://raw.githubusercontent.com/githubpsyche/images/main/characters/Age_39_male_south-asian/cdf_IM-635_south-asian_male_44.jpg\" alt=\"Character south-asian male\">\n            <div>\n                <p>Race: South Asian</p>\n                <p>Sex: Male</p>\n                <p>Age: 44</p>\n            </div>\n        </div></div>","response":0,"left_index":5,"right_index":6,"left_image":"https://raw.githubusercontent.com/githubpsyche/images/main/characters/Age_24_male_east-asian/cdf_AM-210_east-asian_male_21.jpg","right_image":"https://raw.githubusercontent.com/githubpsyche/images/main/characters/Age_39_male_south-asian/cdf_IM-635_south-asian_male_44.jpg","trial_type":"html-button-response","trial_index":36,"time_elapsed":176302,"internal_node_id":"0.0-36.0","choice":"left","winner":5,"loser":6},{"rt":4176,"stimulus":"<div class=\"trial-container\"><div class=\"character-container\">\n            <img src=\"https://raw.githubusercontent.com/githubpsyche/images/main/characters/Age_25-31_female_white/cdf_WF-008_white_female_30.jpg\" alt=\"Character white female\">\n            <div>\n                <p>Race: White</p>\n                <p>Sex: Female</p>\n                <p>Age: 30</p>\n            </div>\n        </div><div class=\"character-container\">\n            <img src=\"https://raw.githubusercontent.com/githubpsyche/images/main/characters/Age_39_female_latino/cdf_LF-233_latino_female_48.jpg\" alt=\"Character latino female\">\n            <div>\n                <p>Race: Latino</p>\n                <p>Sex: Female</p>\n                <p>Age: 48</p>\n            </div>\n        </div></div>","response":0,"left_index":1,"right_index":8,"left_image":"https://raw.githubusercontent.com/githubpsyche/images/main/characters/Age_25-31_female_white/cdf_WF-008_white_female_30.jpg","right_image":"https://raw.githubusercontent.com/githubpsyche/images/main/characters/Age_39_female_latino/cdf_LF-233_latino_female_48.jpg","trial_type":"html-button-response","trial_index":37,"time_elapsed":180480,"internal_node_id":"0.0-37.0","choice":"left","winner":1,"loser":8},{"rt":5851,"stimulus":"<div class=\"trial-container\"><div class=\"character-container\">\n            <img src=\"https://raw.githubusercontent.com/githubpsyche/images/main/characters/Age_25-31_male_white/cdf_WM-032_white_male_25.jpg\" alt=\"Character white male\">\n            <div>\n                <p>Race: White</p>\n                <p>Sex: Male</p>\n                <p>Age: 25</p>\n            </div>\n        </div><div class=\"character-container\">\n            <img src=\"https://raw.githubusercontent.com/githubpsyche/images/main/characters/Age_39_male_white/cdf_WM-221_white_male_41.jpg\" alt=\"Character white male\">\n            <div>\n                <p>Race: White</p>\n                <p>Sex: Male</p>\n                <p>Age: 41</p>\n            </div>\n        </div></div>","response":1,"left_index":2,"right_index":7,"left_image":"https://raw.githubusercontent.com/githubpsyche/images/main/characters/Age_25-31_male_white/cdf_WM-032_white_male_25.jpg","right_image":"https://raw.githubusercontent.com/githubpsyche/images/main/characters/Age_39_male_white/cdf_WM-221_white_male_41.jpg","trial_type":"html-button-response","trial_index":38,"time_elapsed":186335,"internal_node_id":"0.0-38.0","choice":"right","winner":7,"loser":2},{"rt":3048,"stimulus":"<div class=\"trial-container\"><div class=\"character-container\">\n            <img src=\"https://raw.githubusercontent.com/githubpsyche/images/main/characters/Age_25-31_female_white/cdf_WF-008_white_female_30.jpg\" alt=\"Character white female\">\n            <div>\n                <p>Race: White</p>\n                <p>Sex: Female</p>\n                <p>Age: 30</p>\n            </div>\n        </div><div class=\"character-container\">\n            <img src=\"https://raw.githubusercontent.com/githubpsyche/images/main/characters/Age_24_male_black/cdf_BM-009_black_male_18.jpg\" alt=\"Character black male\">\n            <div>\n                <p>Race: Black</p>\n                <p>Sex: Male</p>\n                <p>Age: 18</p>\n            </div>\n        </div></div>","response":1,"left_index":1,"right_index":4,"left_image":"https://raw.githubusercontent.com/githubpsyche/images/main/characters/Age_25-31_female_white/cdf_WF-008_white_female_30.jpg","right_image":"https://raw.githubusercontent.com/githubpsyche/images/main/characters/Age_24_male_black/cdf_BM-009_black_male_18.jpg","trial_type":"html-button-response","trial_index":39,"time_elapsed":189385,"internal_node_id":"0.0-39.0","choice":"right","winner":4,"loser":1},{"rt":2317,"stimulus":"<div class=\"trial-container\"><div class=\"character-container\">\n            <img src=\"https://raw.githubusercontent.com/githubpsyche/images/main/characters/Age_39_female_south-asian/cdf_IF-737_south-asian_female_51.jpg\" alt=\"Character south-asian female\">\n            <div>\n                <p>Race: South Asian</p>\n                <p>Sex: Female</p>\n                <p>Age: 51</p>\n            </div>\n        </div><div class=\"character-container\">\n            <img src=\"https://raw.githubusercontent.com/githubpsyche/images/main/characters/Age_39_male_white/cdf_WM-221_white_male_41.jpg\" alt=\"Character white male\">\n            <div>\n                <p>Race: White</p>\n                <p>Sex: Male</p>\n                <p>Age: 41</p>\n            </div>\n        </div></div>","response":1,"left_index":3,"right_index":7,"left_image":"https://raw.githubusercontent.com/githubpsyche/images/main/characters/Age_39_female_south-asian/cdf_IF-737_south-asian_female_51.jpg","right_image":"https://raw.githubusercontent.com/githubpsyche/images/main/characters/Age_39_male_white/cdf_WM-221_white_male_41.jpg","trial_type":"html-button-response","trial_index":40,"time_elapsed":191705,"internal_node_id":"0.0-40.0","choice":"right","winner":7,"loser":3},{"rt":5145,"stimulus":"<div class=\"trial-container\"><div class=\"character-container\">\n            <img src=\"https://raw.githubusercontent.com/githubpsyche/images/main/characters/Age_24_female_black/cdf_BF-030_black_female_23.jpg\" alt=\"Character black female\">\n            <div>\n                <p>Race: Black</p>\n                <p>Sex: Female</p>\n                <p>Age: 23</p>\n            </div>\n        </div><div class=\"character-container\">\n            <img src=\"https://raw.githubusercontent.com/githubpsyche/images/main/characters/Age_39_female_latino/cdf_LF-233_latino_female_48.jpg\" alt=\"Character latino female\">\n            <div>\n                <p>Race: Latino</p>\n                <p>Sex: Female</p>\n                <p>Age: 48</p>\n            </div>\n        </div></div>","response":0,"left_index":0,"right_index":8,"left_image":"https://raw.githubusercontent.com/githubpsyche/images/main/characters/Age_24_female_black/cdf_BF-030_black_female_23.jpg","right_image":"https://raw.githubusercontent.com/githubpsyche/images/main/characters/Age_39_female_latino/cdf_LF-233_latino_female_48.jpg","trial_type":"html-button-response","trial_index":41,"time_elapsed":196852,"internal_node_id":"0.0-41.0","choice":"left","winner":0,"loser":8},{"rt":1414,"stimulus":"<div class=\"trial-container\"><div class=\"character-container\">\n            <img src=\"https://raw.githubusercontent.com/githubpsyche/images/main/characters/Age_24_female_black/cdf_BF-030_black_female_23.jpg\" alt=\"Character black female\">\n            <div>\n                <p>Race: Black</p>\n                <p>Sex: Female</p>\n                <p>Age: 23</p>\n            </div>\n        </div><div class=\"character-container\">\n            <img src=\"https://raw.githubusercontent.com/githubpsyche/images/main/characters/Age_25-31_male_white/cdf_WM-032_white_male_25.jpg\" alt=\"Character white male\">\n            <div>\n                <p>Race: White</p>\n                <p>Sex: Male</p>\n                <p>Age: 25</p>\n            </div>\n        </div></div>","response":1,"left_index":0,"right_index":2,"left_image":"https://raw.githubusercontent.com/githubpsyche/images/main/characters/Age_24_female_black/cdf_BF-030_black_female_23.jpg","right_image":"https://raw.githubusercontent.com/githubpsyche/images/main/characters/Age_25-31_male_white/cdf_WM-032_white_male_25.jpg","trial_type":"html-button-response","trial_index":42,"time_elapsed":198268,"internal_node_id":"0.0-42.0","choice":"right","winner":2,"loser":0},{"view_history":[{"page_index":0,"viewing_time":2217}],"rt":2217,"condition":1,"trial_type":"instructions","trial_index":43,"time_elapsed":200486,"internal_node_id":"0.0-43.0"},{"ranked_order":[{"rank":1,"index":0,"label":"experiments/sortablerank/user.png","content":"\n            <img src=\"experiments/sortablerank/user.png\" alt=\"Participant\">\n            <div>\n                <p><strong>You (Leader)</strong></p>\n            </div>\n        ","team":"Your Team"},{"rank":2,"index":1,"label":"https://raw.githubusercontent.com/githubpsyche/images/main/characters/Age_24_male_east-asian/cdf_AM-210_east-asian_male_21.jpg","content":"\n            <img src=\"https://raw.githubusercontent.com/githubpsyche/images/main/characters/Age_24_male_east-asian/cdf_AM-210_east-asian_male_21.jpg\" alt=\"Character east-asian male\">\n            <div>\n                <p>Race: East Asian</p>\n                <p>Sex: Male</p>\n                <p>Age: 21</p>\n            </div>\n        ","team":"Your Team"},{"rank":3,"index":2,"label":"https://raw.githubusercontent.com/githubpsyche/images/main/characters/Age_24_male_black/cdf_BM-009_black_male_18.jpg","content":"\n            <img src=\"https://raw.githubusercontent.com/githubpsyche/images/main/characters/Age_24_male_black/cdf_BM-009_black_male_18.jpg\" alt=\"Character black male\">\n            <div>\n                <p>Race: Black</p>\n                <p>Sex: Male</p>\n                <p>Age: 18</p>\n            </div>\n        ","team":"Your Team"},{"rank":4,"index":3,"label":"https://raw.githubusercontent.com/githubpsyche/images/main/characters/Age_39_male_white/cdf_WM-221_white_male_41.jpg","content":"\n            <img src=\"https://raw.githubusercontent.com/githubpsyche/images/main/characters/Age_39_male_white/cdf_WM-221_white_male_41.jpg\" alt=\"Character white male\">\n            <div>\n                <p>Race: White</p>\n                <p>Sex: Male</p>\n                <p>Age: 41</p>\n            </div>\n        ","team":"Your Team"},{"rank":5,"index":5,"label":"https://raw.githubusercontent.com/githubpsyche/images/main/characters/Age_39_female_south-asian/cdf_IF-737_south-asian_female_51.jpg","content":"\n            <img src=\"https://raw.githubusercontent.com/githubpsyche/images/main/characters/Age_39_female_south-asian/cdf_IF-737_south-asian_female_51.jpg\" alt=\"Character south-asian female\">\n            <div>\n                <p>Race: South Asian</p>\n                <p>Sex: Female</p>\n                <p>Age: 51</p>\n            </div>\n        ","team":"Your Team"},{"rank":6,"index":4,"label":"https://raw.githubusercontent.com/githubpsyche/images/main/characters/Age_25-31_male_white/cdf_WM-032_white_male_25.jpg","content":"\n            <img src=\"https://raw.githubusercontent.com/githubpsyche/images/main/characters/Age_25-31_male_white/cdf_WM-032_white_male_25.jpg\" alt=\"Character white male\">\n            <div>\n                <p>Race: White</p>\n                <p>Sex: Male</p>\n                <p>Age: 25</p>\n            </div>\n        ","team":"Opposing Team"},{"rank":7,"index":6,"label":"https://raw.githubusercontent.com/githubpsyche/images/main/characters/Age_24_female_black/cdf_BF-030_black_female_23.jpg","content":"\n            <img src=\"https://raw.githubusercontent.com/githubpsyche/images/main/characters/Age_24_female_black/cdf_BF-030_black_female_23.jpg\" alt=\"Character black female\">\n            <div>\n                <p>Race: Black</p>\n                <p>Sex: Female</p>\n                <p>Age: 23</p>\n            </div>\n        ","team":"Opposing Team"},{"rank":8,"index":7,"label":"https://raw.githubusercontent.com/githubpsyche/images/main/characters/Age_25-31_female_white/cdf_WF-008_white_female_30.jpg","content":"\n            <img src=\"https://raw.githubusercontent.com/githubpsyche/images/main/characters/Age_25-31_female_white/cdf_WF-008_white_female_30.jpg\" alt=\"Character white female\">\n            <div>\n                <p>Race: White</p>\n                <p>Sex: Female</p>\n                <p>Age: 30</p>\n            </div>\n        ","team":"Opposing Team"},{"rank":9,"index":8,"label":"https://raw.githubusercontent.com/githubpsyche/images/main/characters/Age_39_male_south-asian/cdf_IM-635_south-asian_male_44.jpg","content":"\n            <img src=\"https://raw.githubusercontent.com/githubpsyche/images/main/characters/Age_39_male_south-asian/cdf_IM-635_south-asian_male_44.jpg\" alt=\"Character south-asian male\">\n            <div>\n                <p>Race: South Asian</p>\n                <p>Sex: Male</p>\n                <p>Age: 44</p>\n            </div>\n        ","team":"Opposing Team"},{"rank":10,"index":9,"label":"https://raw.githubusercontent.com/githubpsyche/images/main/characters/Age_39_female_latino/cdf_LF-233_latino_female_48.jpg","content":"\n            <img src=\"https://raw.githubusercontent.com/githubpsyche/images/main/characters/Age_39_female_latino/cdf_LF-233_latino_female_48.jpg\" alt=\"Character latino female\">\n            <div>\n                <p>Race: Latino</p>\n                <p>Sex: Female</p>\n                <p>Age: 48</p>\n            </div>\n        ","team":"Opposing Team"}],"team_a":[{"index":0,"label":"experiments/sortablerank/user.png","content":"\n            <img src=\"experiments/sortablerank/user.png\" alt=\"Participant\">\n            <div>\n                <p><strong>You (Leader)</strong></p>\n            </div>\n        "},{"index":1,"label":"https://raw.githubusercontent.com/githubpsyche/images/main/characters/Age_24_male_east-asian/cdf_AM-210_east-asian_male_21.jpg","content":"\n            <img src=\"https://raw.githubusercontent.com/githubpsyche/images/main/characters/Age_24_male_east-asian/cdf_AM-210_east-asian_male_21.jpg\" alt=\"Character east-asian male\">\n            <div>\n                <p>Race: East Asian</p>\n                <p>Sex: Male</p>\n                <p>Age: 21</p>\n            </div>\n        "},{"index":2,"label":"https://raw.githubusercontent.com/githubpsyche/images/main/characters/Age_24_male_black/cdf_BM-009_black_male_18.jpg","content":"\n            <img src=\"https://raw.githubusercontent.com/githubpsyche/images/main/characters/Age_24_male_black/cdf_BM-009_black_male_18.jpg\" alt=\"Character black male\">\n            <div>\n                <p>Race: Black</p>\n                <p>Sex: Male</p>\n                <p>Age: 18</p>\n            </div>\n        "},{"index":3,"label":"https://raw.githubusercontent.com/githubpsyche/images/main/characters/Age_39_male_white/cdf_WM-221_white_male_41.jpg","content":"\n            <img src=\"https://raw.githubusercontent.com/githubpsyche/images/main/characters/Age_39_male_white/cdf_WM-221_white_male_41.jpg\" alt=\"Character white male\">\n            <div>\n                <p>Race: White</p>\n                <p>Sex: Male</p>\n                <p>Age: 41</p>\n            </div>\n        "},{"index":5,"label":"https://raw.githubusercontent.com/githubpsyche/images/main/characters/Age_39_female_south-asian/cdf_IF-737_south-asian_female_51.jpg","content":"\n            <img src=\"https://raw.githubusercontent.com/githubpsyche/images/main/characters/Age_39_female_south-asian/cdf_IF-737_south-asian_female_51.jpg\" alt=\"Character south-asian female\">\n            <div>\n                <p>Race: South Asian</p>\n                <p>Sex: Female</p>\n                <p>Age: 51</p>\n            </div>\n        "}],"team_b":[{"index":4,"label":"https://raw.githubusercontent.com/githubpsyche/images/main/characters/Age_25-31_male_white/cdf_WM-032_white_male_25.jpg","content":"\n            <img src=\"https://raw.githubusercontent.com/githubpsyche/images/main/characters/Age_25-31_male_white/cdf_WM-032_white_male_25.jpg\" alt=\"Character white male\">\n            <div>\n                <p>Race: White</p>\n                <p>Sex: Male</p>\n                <p>Age: 25</p>\n            </div>\n        "},{"index":6,"label":"https://raw.githubusercontent.com/githubpsyche/images/main/characters/Age_24_female_black/cdf_BF-030_black_female_23.jpg","content":"\n            <img src=\"https://raw.githubusercontent.com/githubpsyche/images/main/characters/Age_24_female_black/cdf_BF-030_black_female_23.jpg\" alt=\"Character black female\">\n            <div>\n                <p>Race: Black</p>\n                <p>Sex: Female</p>\n                <p>Age: 23</p>\n            </div>\n        "},{"index":7,"label":"https://raw.githubusercontent.com/githubpsyche/images/main/characters/Age_25-31_female_white/cdf_WF-008_white_female_30.jpg","content":"\n            <img src=\"https://raw.githubusercontent.com/githubpsyche/images/main/characters/Age_25-31_female_white/cdf_WF-008_white_female_30.jpg\" alt=\"Character white female\">\n            <div>\n                <p>Race: White</p>\n                <p>Sex: Female</p>\n                <p>Age: 30</p>\n            </div>\n        "},{"index":8,"label":"https://raw.githubusercontent.com/githubpsyche/images/main/characters/Age_39_male_south-asian/cdf_IM-635_south-asian_male_44.jpg","content":"\n            <img src=\"https://raw.githubusercontent.com/githubpsyche/images/main/characters/Age_39_male_south-asian/cdf_IM-635_south-asian_male_44.jpg\" alt=\"Character south-asian male\">\n            <div>\n                <p>Race: South Asian</p>\n                <p>Sex: Male</p>\n                <p>Age: 44</p>\n            </div>\n        "},{"index":9,"label":"https://raw.githubusercontent.com/githubpsyche/images/main/characters/Age_39_female_latino/cdf_LF-233_latino_female_48.jpg","content":"\n            <img src=\"https://raw.githubusercontent.com/githubpsyche/images/main/characters/Age_39_female_latino/cdf_LF-233_latino_female_48.jpg\" alt=\"Character latino female\">\n            <div>\n                <p>Race: Latino</p>\n                <p>Sex: Female</p>\n                <p>Age: 48</p>\n            </div>\n        "}],"trial_type":"two-team-sortable-rank","trial_index":44,"time_elapsed":232071,"internal_node_id":"0.0-44.0"},{"rt":9799,"response":{"deception":"no"},"trial_type":"survey-html-form","trial_index":45,"time_elapsed":241873,"internal_node_id":"0.0-45.0"},{"view_history":[{"page_index":0,"viewing_time":3706}],"rt":3706,"trial_type":"instructions","trial_index":46,"time_elapsed":245584,"internal_node_id":"0.0-46.0"}]
