[{"view_history":[{"page_index":0,"viewing_time":3810}],"rt":3810,"condition":0,"ordering":1,"trial_type":"instructions","trial_index":0,"time_elapsed":3812,"internal_node_id":"0.0-0.0"},{"view_history":[{"page_index":0,"viewing_time":1083}],"rt":1084,"trial_type":"instructions","trial_index":1,"time_elapsed":4896,"internal_node_id":"0.0-1.0"},{"rt":4768,"response":{"race":"South Asian","gender":"man","age":"1","college":"yes"},"trial_type":"survey-html-form","trial_index":2,"time_elapsed":9667,"internal_node_id":"0.0-2.0"},{"rt":2177,"stimulus":"<h2>Rating</h2><p>On a scale from 1–10, how typically successful are you in competitive environments?</p>","slider_start":5,"response":5,"trial_type":"html-slider-response","trial_index":3,"time_elapsed":11846,"internal_node_id":"0.0-3.0"},{"rt":null,"stimulus":"\n        <p style=\"font-size: 20px;\">Loading...</p>\n        <img src=\"experiments/sortablerank/loading.gif\" style=\"width: 100px; height: 100px;\">","response":null,"trial_type":"html-keyboard-response","trial_index":4,"time_elapsed":13850,"internal_node_id":"0.0-4.0"},{"view_history":[{"page_index":0,"viewing_time":2866},{"page_index":1,"viewing_time":729}],"rt":3595,"condition":0,"trial_type":"instructions","trial_index":5,"time_elapsed":17446,"internal_node_id":"0.0-5.0"},{"rt":null,"stimulus":"\n        <p style=\"font-size: 20px;\">One moment. We are sorting you into a lobby.</p>\n        <img src=\"experiments/sortablerank/loading.gif\" style=\"width: 100px; height: 100px;\">","response":null,"trial_type":"html-keyboard-response","trial_index":6,"time_elapsed":21448,"internal_node_id":"0.0-6.0"},{"view_history":[{"page_index":0,"viewing_time":6229}],"rt":6229,"condition":0,"trial_type":"instructions","trial_index":7,"time_elapsed":27678,"internal_node_id":"0.0-7.0"},{"unsorted_items":[],"team_left_items":[{"index":"locked","label":"locked","content":"<span class=\"rank-number\">1</span><span class=\"lock-icon\">🔒</span><div>\n            <img src=\"experiments/sortablerank/user.png\" alt=\"Participant\">\n            <div>\n                <p><strong>You (Leader)</strong></p>\n            </div>\n        </div>"},{"index":1,"label":"https://raw.githubusercontent.com/githubpsyche/images/main/characters/Age_32-38_male_south-asian/cdf_IM-689_south-asian_male_33.jpg","content":"\n            <img src=\"https://raw.githubusercontent.com/githubpsyche/images/main/characters/Age_32-38_male_south-asian/cdf_IM-689_south-asian_male_33.jpg\" alt=\"Character south-asian male\">\n            <div>\n                <p>Race: South Asian</p>\n                <p>Sex: Male</p>\n                <p>Age: 33</p>\n            </div>\n        "},{"index":7,"label":"https://raw.githubusercontent.com/githubpsyche/images/main/characters/Age_25-31_male_east-asian/cdf_AM-225_east-asian_male_25.jpg","content":"\n            <img src=\"https://raw.githubusercontent.com/githubpsyche/images/main/characters/Age_25-31_male_east-asian/cdf_AM-225_east-asian_male_25.jpg\" alt=\"Character east-asian male\">\n            <div>\n                <p>Race: East Asian</p>\n                <p>Sex: Male</p>\n                <p>Age: 25</p>\n            </div>\n        "},{"index":2,"label":"https://raw.githubusercontent.com/githubpsyche/images/main/characters/Age_39_male_east-asian/cdf_AM-226_east-asian_male_47.jpg","content":"\n            <img src=\"https://raw.githubusercontent.com/githubpsyche/images/main/characters/Age_39_male_east-asian/cdf_AM-226_east-asian_male_47.jpg\" alt=\"Character east-asian male\">\n            <div>\n                <p>Race: East Asian</p>\n                <p>Sex: Male</p>\n                <p>Age: 47</p>\n            </div>\n        "},{"index":3,"label":"https://raw.githubusercontent.com/githubpsyche/images/main/characters/Age_25-31_female_east-asian/cdf_AF-224_east-asian_female_29.jpg","content":"\n            <img src=\"https://raw.githubusercontent.com/githubpsyche/images/main/characters/Age_25-31_female_east-asian/cdf_AF-224_east-asian_female_29.jpg\" alt=\"Character east-asian female\">\n            <div>\n                <p>Race: East Asian</p>\n                <p>Sex: Female</p>\n                <p>Age: 29</p>\n            </div>\n        "}],"team_right_items":[{"index":4,"label":"https://raw.githubusercontent.com/githubpsyche/images/main/characters/Age_32-38_female_white/cdf_WF-241_white_female_33.jpg","content":"\n            <img src=\"https://raw.githubusercontent.com/githubpsyche/images/main/characters/Age_32-38_female_white/cdf_WF-241_white_female_33.jpg\" alt=\"Character white female\">\n            <div>\n                <p>Race: White</p>\n                <p>Sex: Female</p>\n                <p>Age: 33</p>\n            </div>\n        "},{"index":9,"label":"https://raw.githubusercontent.com/githubpsyche/images/main/characters/Age_24_female_latino/cdf_LF-227_latino_female_21.jpg","content":"\n            <img src=\"https://raw.githubusercontent.com/githubpsyche/images/main/characters/Age_24_female_latino/cdf_LF-227_latino_female_21.jpg\" alt=\"Character latino female\">\n            <div>\n                <p>Race: Latino</p>\n                <p>Sex: Female</p>\n                <p>Age: 21</p>\n            </div>\n        "},{"index":6,"label":"https://raw.githubusercontent.com/githubpsyche/images/main/characters/Age_25-31_male_latino/cdf_LM-223_latino_male_29.jpg","content":"\n            <img src=\"https://raw.githubusercontent.com/githubpsyche/images/main/characters/Age_25-31_male_latino/cdf_LM-223_latino_male_29.jpg\" alt=\"Character latino male\">\n            <div>\n                <p>Race: Latino</p>\n                <p>Sex: Male</p>\n                <p>Age: 29</p>\n            </div>\n        "},{"index":5,"label":"https://raw.githubusercontent.com/githubpsyche/images/main/characters/Age_39_male_latino/cdf_LM-236_latino_male_44.jpg","content":"\n            <img src=\"https://raw.githubusercontent.com/githubpsyche/images/main/characters/Age_39_male_latino/cdf_LM-236_latino_male_44.jpg\" alt=\"Character latino male\">\n            <div>\n                <p>Race: Latino</p>\n                <p>Sex: Male</p>\n                <p>Age: 44</p>\n            </div>\n        "},{"index":8,"label":"https://raw.githubusercontent.com/githubpsyche/images/main/characters/Age_39_female_latino/cdf_LF-238_latino_female_42.jpg","content":"\n            <img src=\"https://raw.githubusercontent.com/githubpsyche/images/main/characters/Age_39_female_latino/cdf_LF-238_latino_female_42.jpg\" alt=\"Character latino female\">\n            <div>\n                <p>Race: Latino</p>\n                <p>Sex: Female</p>\n                <p>Age: 42</p>\n            </div>\n        "}],"trial_type":"sortable-rank","trial_index":8,"time_elapsed":125777,"internal_node_id":"0.0-8.0"},{"rt":null,"stimulus":"\n        <p style=\"font-size: 20px;\">Loading...</p>\n        <img src=\"experiments/sortablerank/loading.gif\" style=\"width: 100px; height: 100px;\">","response":null,"trial_type":"html-keyboard-response","trial_index":9,"time_elapsed":127780,"internal_node_id":"0.0-9.0"},{"view_history":[{"page_index":0,"viewing_time":36175}],"rt":36176,"condition":0,"trial_type":"instructions","trial_index":10,"time_elapsed":163957,"internal_node_id":"0.0-10.0"},{"rt":161640,"stimulus":"<div class=\"trial-container\"><div class=\"character-container\">\n            <img src=\"https://raw.githubusercontent.com/githubpsyche/images/main/characters/Age_39_male_east-asian/cdf_AM-226_east-asian_male_47.jpg\" alt=\"Character east-asian male\">\n            <div>\n                <p>Race: East Asian</p>\n                <p>Sex: Male</p>\n                <p>Age: 47</p>\n            </div>\n        </div><div class=\"character-container\">\n            <img src=\"https://raw.githubusercontent.com/githubpsyche/images/main/characters/Age_25-31_male_east-asian/cdf_AM-225_east-asian_male_25.jpg\" alt=\"Character east-asian male\">\n            <div>\n                <p>Race: East Asian</p>\n                <p>Sex: Male</p>\n                <p>Age: 25</p>\n            </div>\n        </div></div>","response":1,"left_index":1,"right_index":6,"left_image":"https://raw.githubusercontent.com/githubpsyche/images/main/characters/Age_39_male_east-asian/cdf_AM-226_east-asian_male_47.jpg","right_image":"https://raw.githubusercontent.com/githubpsyche/images/main/characters/Age_25-31_male_east-asian/cdf_AM-225_east-asian_male_25.jpg","trial_type":"html-button-response","trial_index":11,"time_elapsed":325598,"internal_node_id":"0.0-11.0","choice":"right","winner":6,"loser":1},{"rt":1131,"stimulus":"<div class=\"trial-container\"><div class=\"character-container\">\n            <img src=\"https://raw.githubusercontent.com/githubpsyche/images/main/characters/Age_25-31_female_east-asian/cdf_AF-224_east-asian_female_29.jpg\" alt=\"Character east-asian female\">\n            <div>\n                <p>Race: East Asian</p>\n                <p>Sex: Female</p>\n                <p>Age: 29</p>\n            </div>\n        </div><div class=\"character-container\">\n            <img src=\"https://raw.githubusercontent.com/githubpsyche/images/main/characters/Age_39_male_latino/cdf_LM-236_latino_male_44.jpg\" alt=\"Character latino male\">\n            <div>\n                <p>Race: Latino</p>\n                <p>Sex: Male</p>\n                <p>Age: 44</p>\n            </div>\n        </div></div>","response":1,"left_index":2,"right_index":4,"left_image":"https://raw.githubusercontent.com/githubpsyche/images/main/characters/Age_25-31_female_east-asian/cdf_AF-224_east-asian_female_29.jpg","right_image":"https://raw.githubusercontent.com/githubpsyche/images/main/characters/Age_39_male_latino/cdf_LM-236_latino_male_44.jpg","trial_type":"html-button-response","trial_index":12,"time_elapsed":326731,"internal_node_id":"0.0-12.0","choice":"right","winner":4,"loser":2},{"rt":1314,"stimulus":"<div class=\"trial-container\"><div class=\"character-container\">\n            <img src=\"https://raw.githubusercontent.com/githubpsyche/images/main/characters/Age_39_male_east-asian/cdf_AM-226_east-asian_male_47.jpg\" alt=\"Character east-asian male\">\n            <div>\n                <p>Race: East Asian</p>\n                <p>Sex: Male</p>\n                <p>Age: 47</p>\n            </div>\n        </div><div class=\"character-container\">\n            <img src=\"https://raw.githubusercontent.com/githubpsyche/images/main/characters/Age_32-38_female_white/cdf_WF-241_white_female_33.jpg\" alt=\"Character white female\">\n            <div>\n                <p>Race: White</p>\n                <p>Sex: Female</p>\n                <p>Age: 33</p>\n            </div>\n        </div></div>","response":0,"left_index":1,"right_index":3,"left_image":"https://raw.githubusercontent.com/githubpsyche/images/main/characters/Age_39_male_east-asian/cdf_AM-226_east-asian_male_47.jpg","right_image":"https://raw.githubusercontent.com/githubpsyche/images/main/characters/Age_32-38_female_white/cdf_WF-241_white_female_33.jpg","trial_type":"html-button-response","trial_index":13,"time_elapsed":328046,"internal_node_id":"0.0-13.0","choice":"left","winner":1,"loser":3},{"rt":1151,"stimulus":"<div class=\"trial-container\"><div class=\"character-container\">\n            <img src=\"https://raw.githubusercontent.com/githubpsyche/images/main/characters/Age_25-31_female_east-asian/cdf_AF-224_east-asian_female_29.jpg\" alt=\"Character east-asian female\">\n            <div>\n                <p>Race: East Asian</p>\n                <p>Sex: Female</p>\n                <p>Age: 29</p>\n            </div>\n        </div><div class=\"character-container\">\n            <img src=\"https://raw.githubusercontent.com/githubpsyche/images/main/characters/Age_25-31_male_east-asian/cdf_AM-225_east-asian_male_25.jpg\" alt=\"Character east-asian male\">\n            <div>\n                <p>Race: East Asian</p>\n                <p>Sex: Male</p>\n                <p>Age: 25</p>\n            </div>\n        </div></div>","response":1,"left_index":2,"right_index":6,"left_image":"https://raw.githubusercontent.com/githubpsyche/images/main/characters/Age_25-31_female_east-asian/cdf_AF-224_east-asian_female_29.jpg","right_image":"https://raw.githubusercontent.com/githubpsyche/images/main/characters/Age_25-31_male_east-asian/cdf_AM-225_east-asian_male_25.jpg","trial_type":"html-button-response","trial_index":14,"time_elapsed":329197,"internal_node_id":"0.0-14.0","choice":"right","winner":6,"loser":2},{"rt":1199,"stimulus":"<div class=\"trial-container\"><div class=\"character-container\">\n            <img src=\"https://raw.githubusercontent.com/githubpsyche/images/main/characters/Age_39_male_east-asian/cdf_AM-226_east-asian_male_47.jpg\" alt=\"Character east-asian male\">\n            <div>\n                <p>Race: East Asian</p>\n                <p>Sex: Male</p>\n                <p>Age: 47</p>\n            </div>\n        </div><div class=\"character-container\">\n            <img src=\"https://raw.githubusercontent.com/githubpsyche/images/main/characters/Age_39_male_latino/cdf_LM-236_latino_male_44.jpg\" alt=\"Character latino male\">\n            <div>\n                <p>Race: Latino</p>\n                <p>Sex: Male</p>\n                <p>Age: 44</p>\n            </div>\n        </div></div>","response":0,"left_index":1,"right_index":4,"left_image":"https://raw.githubusercontent.com/githubpsyche/images/main/characters/Age_39_male_east-asian/cdf_AM-226_east-asian_male_47.jpg","right_image":"https://raw.githubusercontent.com/githubpsyche/images/main/characters/Age_39_male_latino/cdf_LM-236_latino_male_44.jpg","trial_type":"html-button-response","trial_index":15,"time_elapsed":330397,"internal_node_id":"0.0-15.0","choice":"left","winner":1,"loser":4},{"rt":931,"stimulus":"<div class=\"trial-container\"><div class=\"character-container\">\n            <img src=\"https://raw.githubusercontent.com/githubpsyche/images/main/characters/Age_25-31_female_east-asian/cdf_AF-224_east-asian_female_29.jpg\" alt=\"Character east-asian female\">\n            <div>\n                <p>Race: East Asian</p>\n                <p>Sex: Female</p>\n                <p>Age: 29</p>\n            </div>\n        </div><div class=\"character-container\">\n            <img src=\"https://raw.githubusercontent.com/githubpsyche/images/main/characters/Age_25-31_male_latino/cdf_LM-223_latino_male_29.jpg\" alt=\"Character latino male\">\n            <div>\n                <p>Race: Latino</p>\n                <p>Sex: Male</p>\n                <p>Age: 29</p>\n            </div>\n        </div></div>","response":1,"left_index":2,"right_index":5,"left_image":"https://raw.githubusercontent.com/githubpsyche/images/main/characters/Age_25-31_female_east-asian/cdf_AF-224_east-asian_female_29.jpg","right_image":"https://raw.githubusercontent.com/githubpsyche/images/main/characters/Age_25-31_male_latino/cdf_LM-223_latino_male_29.jpg","trial_type":"html-button-response","trial_index":16,"time_elapsed":331330,"internal_node_id":"0.0-16.0","choice":"right","winner":5,"loser":2},{"rt":2033,"stimulus":"<div class=\"trial-container\"><div class=\"character-container\">\n            <img src=\"https://raw.githubusercontent.com/githubpsyche/images/main/characters/Age_39_male_latino/cdf_LM-236_latino_male_44.jpg\" alt=\"Character latino male\">\n            <div>\n                <p>Race: Latino</p>\n                <p>Sex: Male</p>\n                <p>Age: 44</p>\n            </div>\n        </div><div class=\"character-container\">\n            <img src=\"https://raw.githubusercontent.com/githubpsyche/images/main/characters/Age_24_female_latino/cdf_LF-227_latino_female_21.jpg\" alt=\"Character latino female\">\n            <div>\n                <p>Race: Latino</p>\n                <p>Sex: Female</p>\n                <p>Age: 21</p>\n            </div>\n        </div></div>","response":1,"left_index":4,"right_index":8,"left_image":"https://raw.githubusercontent.com/githubpsyche/images/main/characters/Age_39_male_latino/cdf_LM-236_latino_male_44.jpg","right_image":"https://raw.githubusercontent.com/githubpsyche/images/main/characters/Age_24_female_latino/cdf_LF-227_latino_female_21.jpg","trial_type":"html-button-response","trial_index":17,"time_elapsed":333363,"internal_node_id":"0.0-17.0","choice":"right","winner":8,"loser":4},{"rt":899,"stimulus":"<div class=\"trial-container\"><div class=\"character-container\">\n            <img src=\"https://raw.githubusercontent.com/githubpsyche/images/main/characters/Age_32-38_female_white/cdf_WF-241_white_female_33.jpg\" alt=\"Character white female\">\n            <div>\n                <p>Race: White</p>\n                <p>Sex: Female</p>\n                <p>Age: 33</p>\n            </div>\n        </div><div class=\"character-container\">\n            <img src=\"https://raw.githubusercontent.com/githubpsyche/images/main/characters/Age_25-31_male_latino/cdf_LM-223_latino_male_29.jpg\" alt=\"Character latino male\">\n            <div>\n                <p>Race: Latino</p>\n                <p>Sex: Male</p>\n                <p>Age: 29</p>\n            </div>\n        </div></div>","response":1,"left_index":3,"right_index":5,"left_image":"https://raw.githubusercontent.com/githubpsyche/images/main/characters/Age_32-38_female_white/cdf_WF-241_white_female_33.jpg","right_image":"https://raw.githubusercontent.com/githubpsyche/images/main/characters/Age_25-31_male_latino/cdf_LM-223_latino_male_29.jpg","trial_type":"html-button-response","trial_index":18,"time_elapsed":334264,"internal_node_id":"0.0-18.0","choice":"right","winner":5,"loser":3},{"rt":1249,"stimulus":"<div class=\"trial-container\"><div class=\"character-container\">\n            <img src=\"https://raw.githubusercontent.com/githubpsyche/images/main/characters/Age_25-31_female_east-asian/cdf_AF-224_east-asian_female_29.jpg\" alt=\"Character east-asian female\">\n            <div>\n                <p>Race: East Asian</p>\n                <p>Sex: Female</p>\n                <p>Age: 29</p>\n            </div>\n        </div><div class=\"character-container\">\n            <img src=\"https://raw.githubusercontent.com/githubpsyche/images/main/characters/Age_24_female_latino/cdf_LF-227_latino_female_21.jpg\" alt=\"Character latino female\">\n            <div>\n                <p>Race: Latino</p>\n                <p>Sex: Female</p>\n                <p>Age: 21</p>\n            </div>\n        </div></div>","response":1,"left_index":2,"right_index":8,"left_image":"https://raw.githubusercontent.com/githubpsyche/images/main/characters/Age_25-31_female_east-asian/cdf_AF-224_east-asian_female_29.jpg","right_image":"https://raw.githubusercontent.com/githubpsyche/images/main/characters/Age_24_female_latino/cdf_LF-227_latino_female_21.jpg","trial_type":"html-button-response","trial_index":19,"time_elapsed":335515,"internal_node_id":"0.0-19.0","choice":"right","winner":8,"loser":2},{"rt":781,"stimulus":"<div class=\"trial-container\"><div class=\"character-container\">\n            <img src=\"https://raw.githubusercontent.com/githubpsyche/images/main/characters/Age_39_male_east-asian/cdf_AM-226_east-asian_male_47.jpg\" alt=\"Character east-asian male\">\n            <div>\n                <p>Race: East Asian</p>\n                <p>Sex: Male</p>\n                <p>Age: 47</p>\n            </div>\n        </div><div class=\"character-container\">\n            <img src=\"https://raw.githubusercontent.com/githubpsyche/images/main/characters/Age_25-31_male_latino/cdf_LM-223_latino_male_29.jpg\" alt=\"Character latino male\">\n            <div>\n                <p>Race: Latino</p>\n                <p>Sex: Male</p>\n                <p>Age: 29</p>\n            </div>\n        </div></div>","response":1,"left_index":1,"right_index":5,"left_image":"https://raw.githubusercontent.com/githubpsyche/images/main/characters/Age_39_male_east-asian/cdf_AM-226_east-asian_male_47.jpg","right_image":"https://raw.githubusercontent.com/githubpsyche/images/main/characters/Age_25-31_male_latino/cdf_LM-223_latino_male_29.jpg","trial_type":"html-button-response","trial_index":20,"time_elapsed":336297,"internal_node_id":"0.0-20.0","choice":"right","winner":5,"loser":1},{"rt":1331,"stimulus":"<div class=\"trial-container\"><div class=\"character-container\">\n            <img src=\"https://raw.githubusercontent.com/githubpsyche/images/main/characters/Age_32-38_female_white/cdf_WF-241_white_female_33.jpg\" alt=\"Character white female\">\n            <div>\n                <p>Race: White</p>\n                <p>Sex: Female</p>\n                <p>Age: 33</p>\n            </div>\n        </div><div class=\"character-container\">\n            <img src=\"https://raw.githubusercontent.com/githubpsyche/images/main/characters/Age_39_female_latino/cdf_LF-238_latino_female_42.jpg\" alt=\"Character latino female\">\n            <div>\n                <p>Race: Latino</p>\n                <p>Sex: Female</p>\n                <p>Age: 42</p>\n            </div>\n        </div></div>","response":0,"left_index":3,"right_index":7,"left_image":"https://raw.githubusercontent.com/githubpsyche/images/main/characters/Age_32-38_female_white/cdf_WF-241_white_female_33.jpg","right_image":"https://raw.githubusercontent.com/githubpsyche/images/main/characters/Age_39_female_latino/cdf_LF-238_latino_female_42.jpg","trial_type":"html-button-response","trial_index":21,"time_elapsed":337630,"internal_node_id":"0.0-21.0","choice":"left","winner":3,"loser":7},{"rt":1082,"stimulus":"<div class=\"trial-container\"><div class=\"character-container\">\n            <img src=\"https://raw.githubusercontent.com/githubpsyche/images/main/characters/Age_25-31_male_latino/cdf_LM-223_latino_male_29.jpg\" alt=\"Character latino male\">\n            <div>\n                <p>Race: Latino</p>\n                <p>Sex: Male</p>\n                <p>Age: 29</p>\n            </div>\n        </div><div class=\"character-container\">\n            <img src=\"https://raw.githubusercontent.com/githubpsyche/images/main/characters/Age_25-31_male_east-asian/cdf_AM-225_east-asian_male_25.jpg\" alt=\"Character east-asian male\">\n            <div>\n                <p>Race: East Asian</p>\n                <p>Sex: Male</p>\n                <p>Age: 25</p>\n            </div>\n        </div></div>","response":0,"left_index":5,"right_index":6,"left_image":"https://raw.githubusercontent.com/githubpsyche/images/main/characters/Age_25-31_male_latino/cdf_LM-223_latino_male_29.jpg","right_image":"https://raw.githubusercontent.com/githubpsyche/images/main/characters/Age_25-31_male_east-asian/cdf_AM-225_east-asian_male_25.jpg","trial_type":"html-button-response","trial_index":22,"time_elapsed":338714,"internal_node_id":"0.0-22.0","choice":"left","winner":5,"loser":6},{"rt":1681,"stimulus":"<div class=\"trial-container\"><div class=\"character-container\">\n            <img src=\"https://raw.githubusercontent.com/githubpsyche/images/main/characters/Age_25-31_female_east-asian/cdf_AF-224_east-asian_female_29.jpg\" alt=\"Character east-asian female\">\n            <div>\n                <p>Race: East Asian</p>\n                <p>Sex: Female</p>\n                <p>Age: 29</p>\n            </div>\n        </div><div class=\"character-container\">\n            <img src=\"https://raw.githubusercontent.com/githubpsyche/images/main/characters/Age_39_female_latino/cdf_LF-238_latino_female_42.jpg\" alt=\"Character latino female\">\n            <div>\n                <p>Race: Latino</p>\n                <p>Sex: Female</p>\n                <p>Age: 42</p>\n            </div>\n        </div></div>","response":0,"left_index":2,"right_index":7,"left_image":"https://raw.githubusercontent.com/githubpsyche/images/main/characters/Age_25-31_female_east-asian/cdf_AF-224_east-asian_female_29.jpg","right_image":"https://raw.githubusercontent.com/githubpsyche/images/main/characters/Age_39_female_latino/cdf_LF-238_latino_female_42.jpg","trial_type":"html-button-response","trial_index":23,"time_elapsed":340397,"internal_node_id":"0.0-23.0","choice":"left","winner":2,"loser":7},{"rt":982,"stimulus":"<div class=\"trial-container\"><div class=\"character-container\">\n            <img src=\"https://raw.githubusercontent.com/githubpsyche/images/main/characters/Age_32-38_male_south-asian/cdf_IM-689_south-asian_male_33.jpg\" alt=\"Character south-asian male\">\n            <div>\n                <p>Race: South Asian</p>\n                <p>Sex: Male</p>\n                <p>Age: 33</p>\n            </div>\n        </div><div class=\"character-container\">\n            <img src=\"https://raw.githubusercontent.com/githubpsyche/images/main/characters/Age_24_female_latino/cdf_LF-227_latino_female_21.jpg\" alt=\"Character latino female\">\n            <div>\n                <p>Race: Latino</p>\n                <p>Sex: Female</p>\n                <p>Age: 21</p>\n            </div>\n        </div></div>","response":0,"left_index":0,"right_index":8,"left_image":"https://raw.githubusercontent.com/githubpsyche/images/main/characters/Age_32-38_male_south-asian/cdf_IM-689_south-asian_male_33.jpg","right_image":"https://raw.githubusercontent.com/githubpsyche/images/main/characters/Age_24_female_latino/cdf_LF-227_latino_female_21.jpg","trial_type":"html-button-response","trial_index":24,"time_elapsed":341380,"internal_node_id":"0.0-24.0","choice":"left","winner":0,"loser":8},{"rt":1781,"stimulus":"<div class=\"trial-container\"><div class=\"character-container\">\n            <img src=\"https://raw.githubusercontent.com/githubpsyche/images/main/characters/Age_39_male_east-asian/cdf_AM-226_east-asian_male_47.jpg\" alt=\"Character east-asian male\">\n            <div>\n                <p>Race: East Asian</p>\n                <p>Sex: Male</p>\n                <p>Age: 47</p>\n            </div>\n        </div><div class=\"character-container\">\n            <img src=\"https://raw.githubusercontent.com/githubpsyche/images/main/characters/Age_39_female_latino/cdf_LF-238_latino_female_42.jpg\" alt=\"Character latino female\">\n            <div>\n                <p>Race: Latino</p>\n                <p>Sex: Female</p>\n                <p>Age: 42</p>\n            </div>\n        </div></div>","response":0,"left_index":1,"right_index":7,"left_image":"https://raw.githubusercontent.com/githubpsyche/images/main/characters/Age_39_male_east-asian/cdf_AM-226_east-asian_male_47.jpg","right_image":"https://raw.githubusercontent.com/githubpsyche/images/main/characters/Age_39_female_latino/cdf_LF-238_latino_female_42.jpg","trial_type":"html-button-response","trial_index":25,"time_elapsed":343163,"internal_node_id":"0.0-25.0","choice":"left","winner":1,"loser":7},{"rt":2100,"stimulus":"<div class=\"trial-container\"><div class=\"character-container\">\n            <img src=\"https://raw.githubusercontent.com/githubpsyche/images/main/characters/Age_32-38_male_south-asian/cdf_IM-689_south-asian_male_33.jpg\" alt=\"Character south-asian male\">\n            <div>\n                <p>Race: South Asian</p>\n                <p>Sex: Male</p>\n                <p>Age: 33</p>\n            </div>\n        </div><div class=\"character-container\">\n            <img src=\"https://raw.githubusercontent.com/githubpsyche/images/main/characters/Age_25-31_male_latino/cdf_LM-223_latino_male_29.jpg\" alt=\"Character latino male\">\n            <div>\n                <p>Race: Latino</p>\n                <p>Sex: Male</p>\n                <p>Age: 29</p>\n            </div>\n        </div></div>","response":0,"left_index":0,"right_index":5,"left_image":"https://raw.githubusercontent.com/githubpsyche/images/main/characters/Age_32-38_male_south-asian/cdf_IM-689_south-asian_male_33.jpg","right_image":"https://raw.githubusercontent.com/githubpsyche/images/main/characters/Age_25-31_male_latino/cdf_LM-223_latino_male_29.jpg","trial_type":"html-button-response","trial_index":26,"time_elapsed":345264,"internal_node_id":"0.0-26.0","choice":"left","winner":0,"loser":5},{"rt":1698,"stimulus":"<div class=\"trial-container\"><div class=\"character-container\">\n            <img src=\"https://raw.githubusercontent.com/githubpsyche/images/main/characters/Age_32-38_female_white/cdf_WF-241_white_female_33.jpg\" alt=\"Character white female\">\n            <div>\n                <p>Race: White</p>\n                <p>Sex: Female</p>\n                <p>Age: 33</p>\n            </div>\n        </div><div class=\"character-container\">\n            <img src=\"https://raw.githubusercontent.com/githubpsyche/images/main/characters/Age_25-31_male_east-asian/cdf_AM-225_east-asian_male_25.jpg\" alt=\"Character east-asian male\">\n            <div>\n                <p>Race: East Asian</p>\n                <p>Sex: Male</p>\n                <p>Age: 25</p>\n            </div>\n        </div></div>","response":1,"left_index":3,"right_index":6,"left_image":"https://raw.githubusercontent.com/githubpsyche/images/main/characters/Age_32-38_female_white/cdf_WF-241_white_female_33.jpg","right_image":"https://raw.githubusercontent.com/githubpsyche/images/main/characters/Age_25-31_male_east-asian/cdf_AM-225_east-asian_male_25.jpg","trial_type":"html-button-response","trial_index":27,"time_elapsed":346963,"internal_node_id":"0.0-27.0","choice":"right","winner":6,"loser":3},{"rt":2632,"stimulus":"<div class=\"trial-container\"><div class=\"character-container\">\n            <img src=\"https://raw.githubusercontent.com/githubpsyche/images/main/characters/Age_39_female_latino/cdf_LF-238_latino_female_42.jpg\" alt=\"Character latino female\">\n            <div>\n                <p>Race: Latino</p>\n                <p>Sex: Female</p>\n                <p>Age: 42</p>\n            </div>\n        </div><div class=\"character-container\">\n            <img src=\"https://raw.githubusercontent.com/githubpsyche/images/main/characters/Age_24_female_latino/cdf_LF-227_latino_female_21.jpg\" alt=\"Character latino female\">\n            <div>\n                <p>Race: Latino</p>\n                <p>Sex: Female</p>\n                <p>Age: 21</p>\n            </div>\n        </div></div>","response":1,"left_index":7,"right_index":8,"left_image":"https://raw.githubusercontent.com/githubpsyche/images/main/characters/Age_39_female_latino/cdf_LF-238_latino_female_42.jpg","right_image":"https://raw.githubusercontent.com/githubpsyche/images/main/characters/Age_24_female_latino/cdf_LF-227_latino_female_21.jpg","trial_type":"html-button-response","trial_index":28,"time_elapsed":349597,"internal_node_id":"0.0-28.0","choice":"right","winner":8,"loser":7},{"rt":1948,"stimulus":"<div class=\"trial-container\"><div class=\"character-container\">\n            <img src=\"https://raw.githubusercontent.com/githubpsyche/images/main/characters/Age_32-38_male_south-asian/cdf_IM-689_south-asian_male_33.jpg\" alt=\"Character south-asian male\">\n            <div>\n                <p>Race: South Asian</p>\n                <p>Sex: Male</p>\n                <p>Age: 33</p>\n            </div>\n        </div><div class=\"character-container\">\n            <img src=\"https://raw.githubusercontent.com/githubpsyche/images/main/characters/Age_39_male_latino/cdf_LM-236_latino_male_44.jpg\" alt=\"Character latino male\">\n            <div>\n                <p>Race: Latino</p>\n                <p>Sex: Male</p>\n                <p>Age: 44</p>\n            </div>\n        </div></div>","response":0,"left_index":0,"right_index":4,"left_image":"https://raw.githubusercontent.com/githubpsyche/images/main/characters/Age_32-38_male_south-asian/cdf_IM-689_south-asian_male_33.jpg","right_image":"https://raw.githubusercontent.com/githubpsyche/images/main/characters/Age_39_male_latino/cdf_LM-236_latino_male_44.jpg","trial_type":"html-button-response","trial_index":29,"time_elapsed":351547,"internal_node_id":"0.0-29.0","choice":"left","winner":0,"loser":4},{"rt":1280,"stimulus":"<div class=\"trial-container\"><div class=\"character-container\">\n            <img src=\"https://raw.githubusercontent.com/githubpsyche/images/main/characters/Age_25-31_male_east-asian/cdf_AM-225_east-asian_male_25.jpg\" alt=\"Character east-asian male\">\n            <div>\n                <p>Race: East Asian</p>\n                <p>Sex: Male</p>\n                <p>Age: 25</p>\n            </div>\n        </div><div class=\"character-container\">\n            <img src=\"https://raw.githubusercontent.com/githubpsyche/images/main/characters/Age_24_female_latino/cdf_LF-227_latino_female_21.jpg\" alt=\"Character latino female\">\n            <div>\n                <p>Race: Latino</p>\n                <p>Sex: Female</p>\n                <p>Age: 21</p>\n            </div>\n        </div></div>","response":0,"left_index":6,"right_index":8,"left_image":"https://raw.githubusercontent.com/githubpsyche/images/main/characters/Age_25-31_male_east-asian/cdf_AM-225_east-asian_male_25.jpg","right_image":"https://raw.githubusercontent.com/githubpsyche/images/main/characters/Age_24_female_latino/cdf_LF-227_latino_female_21.jpg","trial_type":"html-button-response","trial_index":30,"time_elapsed":352829,"internal_node_id":"0.0-30.0","choice":"left","winner":6,"loser":8},{"rt":1566,"stimulus":"<div class=\"trial-container\"><div class=\"character-container\">\n            <img src=\"https://raw.githubusercontent.com/githubpsyche/images/main/characters/Age_39_male_latino/cdf_LM-236_latino_male_44.jpg\" alt=\"Character latino male\">\n            <div>\n                <p>Race: Latino</p>\n                <p>Sex: Male</p>\n                <p>Age: 44</p>\n            </div>\n        </div><div class=\"character-container\">\n            <img src=\"https://raw.githubusercontent.com/githubpsyche/images/main/characters/Age_39_female_latino/cdf_LF-238_latino_female_42.jpg\" alt=\"Character latino female\">\n            <div>\n                <p>Race: Latino</p>\n                <p>Sex: Female</p>\n                <p>Age: 42</p>\n            </div>\n        </div></div>","response":0,"left_index":4,"right_index":7,"left_image":"https://raw.githubusercontent.com/githubpsyche/images/main/characters/Age_39_male_latino/cdf_LM-236_latino_male_44.jpg","right_image":"https://raw.githubusercontent.com/githubpsyche/images/main/characters/Age_39_female_latino/cdf_LF-238_latino_female_42.jpg","trial_type":"html-button-response","trial_index":31,"time_elapsed":354396,"internal_node_id":"0.0-31.0","choice":"left","winner":4,"loser":7},{"rt":998,"stimulus":"<div class=\"trial-container\"><div class=\"character-container\">\n            <img src=\"https://raw.githubusercontent.com/githubpsyche/images/main/characters/Age_32-38_male_south-asian/cdf_IM-689_south-asian_male_33.jpg\" alt=\"Character south-asian male\">\n            <div>\n                <p>Race: South Asian</p>\n                <p>Sex: Male</p>\n                <p>Age: 33</p>\n            </div>\n        </div><div class=\"character-container\">\n            <img src=\"https://raw.githubusercontent.com/githubpsyche/images/main/characters/Age_25-31_female_east-asian/cdf_AF-224_east-asian_female_29.jpg\" alt=\"Character east-asian female\">\n            <div>\n                <p>Race: East Asian</p>\n                <p>Sex: Female</p>\n                <p>Age: 29</p>\n            </div>\n        </div></div>","response":0,"left_index":0,"right_index":2,"left_image":"https://raw.githubusercontent.com/githubpsyche/images/main/characters/Age_32-38_male_south-asian/cdf_IM-689_south-asian_male_33.jpg","right_image":"https://raw.githubusercontent.com/githubpsyche/images/main/characters/Age_25-31_female_east-asian/cdf_AF-224_east-asian_female_29.jpg","trial_type":"html-button-response","trial_index":32,"time_elapsed":355396,"internal_node_id":"0.0-32.0","choice":"left","winner":0,"loser":2},{"rt":998,"stimulus":"<div class=\"trial-container\"><div class=\"character-container\">\n            <img src=\"https://raw.githubusercontent.com/githubpsyche/images/main/characters/Age_32-38_female_white/cdf_WF-241_white_female_33.jpg\" alt=\"Character white female\">\n            <div>\n                <p>Race: White</p>\n                <p>Sex: Female</p>\n                <p>Age: 33</p>\n            </div>\n        </div><div class=\"character-container\">\n            <img src=\"https://raw.githubusercontent.com/githubpsyche/images/main/characters/Age_24_female_latino/cdf_LF-227_latino_female_21.jpg\" alt=\"Character latino female\">\n            <div>\n                <p>Race: Latino</p>\n                <p>Sex: Female</p>\n                <p>Age: 21</p>\n            </div>\n        </div></div>","response":0,"left_index":3,"right_index":8,"left_image":"https://raw.githubusercontent.com/githubpsyche/images/main/characters/Age_32-38_female_white/cdf_WF-241_white_female_33.jpg","right_image":"https://raw.githubusercontent.com/githubpsyche/images/main/characters/Age_24_female_latino/cdf_LF-227_latino_female_21.jpg","trial_type":"html-button-response","trial_index":33,"time_elapsed":356396,"internal_node_id":"0.0-33.0","choice":"left","winner":3,"loser":8},{"rt":965,"stimulus":"<div class=\"trial-container\"><div class=\"character-container\">\n            <img src=\"https://raw.githubusercontent.com/githubpsyche/images/main/characters/Age_25-31_male_east-asian/cdf_AM-225_east-asian_male_25.jpg\" alt=\"Character east-asian male\">\n            <div>\n                <p>Race: East Asian</p>\n                <p>Sex: Male</p>\n                <p>Age: 25</p>\n            </div>\n        </div><div class=\"character-container\">\n            <img src=\"https://raw.githubusercontent.com/githubpsyche/images/main/characters/Age_39_female_latino/cdf_LF-238_latino_female_42.jpg\" alt=\"Character latino female\">\n            <div>\n                <p>Race: Latino</p>\n                <p>Sex: Female</p>\n                <p>Age: 42</p>\n            </div>\n        </div></div>","response":0,"left_index":6,"right_index":7,"left_image":"https://raw.githubusercontent.com/githubpsyche/images/main/characters/Age_25-31_male_east-asian/cdf_AM-225_east-asian_male_25.jpg","right_image":"https://raw.githubusercontent.com/githubpsyche/images/main/characters/Age_39_female_latino/cdf_LF-238_latino_female_42.jpg","trial_type":"html-button-response","trial_index":34,"time_elapsed":357363,"internal_node_id":"0.0-34.0","choice":"left","winner":6,"loser":7},{"rt":881,"stimulus":"<div class=\"trial-container\"><div class=\"character-container\">\n            <img src=\"https://raw.githubusercontent.com/githubpsyche/images/main/characters/Age_39_male_east-asian/cdf_AM-226_east-asian_male_47.jpg\" alt=\"Character east-asian male\">\n            <div>\n                <p>Race: East Asian</p>\n                <p>Sex: Male</p>\n                <p>Age: 47</p>\n            </div>\n        </div><div class=\"character-container\">\n            <img src=\"https://raw.githubusercontent.com/githubpsyche/images/main/characters/Age_24_female_latino/cdf_LF-227_latino_female_21.jpg\" alt=\"Character latino female\">\n            <div>\n                <p>Race: Latino</p>\n                <p>Sex: Female</p>\n                <p>Age: 21</p>\n            </div>\n        </div></div>","response":0,"left_index":1,"right_index":8,"left_image":"https://raw.githubusercontent.com/githubpsyche/images/main/characters/Age_39_male_east-asian/cdf_AM-226_east-asian_male_47.jpg","right_image":"https://raw.githubusercontent.com/githubpsyche/images/main/characters/Age_24_female_latino/cdf_LF-227_latino_female_21.jpg","trial_type":"html-button-response","trial_index":35,"time_elapsed":358246,"internal_node_id":"0.0-35.0","choice":"left","winner":1,"loser":8},{"rt":1631,"stimulus":"<div class=\"trial-container\"><div class=\"character-container\">\n            <img src=\"https://raw.githubusercontent.com/githubpsyche/images/main/characters/Age_39_male_latino/cdf_LM-236_latino_male_44.jpg\" alt=\"Character latino male\">\n            <div>\n                <p>Race: Latino</p>\n                <p>Sex: Male</p>\n                <p>Age: 44</p>\n            </div>\n        </div><div class=\"character-container\">\n            <img src=\"https://raw.githubusercontent.com/githubpsyche/images/main/characters/Age_25-31_male_latino/cdf_LM-223_latino_male_29.jpg\" alt=\"Character latino male\">\n            <div>\n                <p>Race: Latino</p>\n                <p>Sex: Male</p>\n                <p>Age: 29</p>\n            </div>\n        </div></div>","response":0,"left_index":4,"right_index":5,"left_image":"https://raw.githubusercontent.com/githubpsyche/images/main/characters/Age_39_male_latino/cdf_LM-236_latino_male_44.jpg","right_image":"https://raw.githubusercontent.com/githubpsyche/images/main/characters/Age_25-31_male_latino/cdf_LM-223_latino_male_29.jpg","trial_type":"html-button-response","trial_index":36,"time_elapsed":359879,"internal_node_id":"0.0-36.0","choice":"left","winner":4,"loser":5},{"rt":1132,"stimulus":"<div class=\"trial-container\"><div class=\"character-container\">\n            <img src=\"https://raw.githubusercontent.com/githubpsyche/images/main/characters/Age_25-31_female_east-asian/cdf_AF-224_east-asian_female_29.jpg\" alt=\"Character east-asian female\">\n            <div>\n                <p>Race: East Asian</p>\n                <p>Sex: Female</p>\n                <p>Age: 29</p>\n            </div>\n        </div><div class=\"character-container\">\n            <img src=\"https://raw.githubusercontent.com/githubpsyche/images/main/characters/Age_32-38_female_white/cdf_WF-241_white_female_33.jpg\" alt=\"Character white female\">\n            <div>\n                <p>Race: White</p>\n                <p>Sex: Female</p>\n                <p>Age: 33</p>\n            </div>\n        </div></div>","response":0,"left_index":2,"right_index":3,"left_image":"https://raw.githubusercontent.com/githubpsyche/images/main/characters/Age_25-31_female_east-asian/cdf_AF-224_east-asian_female_29.jpg","right_image":"https://raw.githubusercontent.com/githubpsyche/images/main/characters/Age_32-38_female_white/cdf_WF-241_white_female_33.jpg","trial_type":"html-button-response","trial_index":37,"time_elapsed":361013,"internal_node_id":"0.0-37.0","choice":"left","winner":2,"loser":3},{"rt":848,"stimulus":"<div class=\"trial-container\"><div class=\"character-container\">\n            <img src=\"https://raw.githubusercontent.com/githubpsyche/images/main/characters/Age_32-38_male_south-asian/cdf_IM-689_south-asian_male_33.jpg\" alt=\"Character south-asian male\">\n            <div>\n                <p>Race: South Asian</p>\n                <p>Sex: Male</p>\n                <p>Age: 33</p>\n            </div>\n        </div><div class=\"character-container\">\n            <img src=\"https://raw.githubusercontent.com/githubpsyche/images/main/characters/Age_25-31_male_east-asian/cdf_AM-225_east-asian_male_25.jpg\" alt=\"Character east-asian male\">\n            <div>\n                <p>Race: East Asian</p>\n                <p>Sex: Male</p>\n                <p>Age: 25</p>\n            </div>\n        </div></div>","response":0,"left_index":0,"right_index":6,"left_image":"https://raw.githubusercontent.com/githubpsyche/images/main/characters/Age_32-38_male_south-asian/cdf_IM-689_south-asian_male_33.jpg","right_image":"https://raw.githubusercontent.com/githubpsyche/images/main/characters/Age_25-31_male_east-asian/cdf_AM-225_east-asian_male_25.jpg","trial_type":"html-button-response","trial_index":38,"time_elapsed":361862,"internal_node_id":"0.0-38.0","choice":"left","winner":0,"loser":6},{"rt":1032,"stimulus":"<div class=\"trial-container\"><div class=\"character-container\">\n            <img src=\"https://raw.githubusercontent.com/githubpsyche/images/main/characters/Age_39_male_east-asian/cdf_AM-226_east-asian_male_47.jpg\" alt=\"Character east-asian male\">\n            <div>\n                <p>Race: East Asian</p>\n                <p>Sex: Male</p>\n                <p>Age: 47</p>\n            </div>\n        </div><div class=\"character-container\">\n            <img src=\"https://raw.githubusercontent.com/githubpsyche/images/main/characters/Age_25-31_female_east-asian/cdf_AF-224_east-asian_female_29.jpg\" alt=\"Character east-asian female\">\n            <div>\n                <p>Race: East Asian</p>\n                <p>Sex: Female</p>\n                <p>Age: 29</p>\n            </div>\n        </div></div>","response":0,"left_index":1,"right_index":2,"left_image":"https://raw.githubusercontent.com/githubpsyche/images/main/characters/Age_39_male_east-asian/cdf_AM-226_east-asian_male_47.jpg","right_image":"https://raw.githubusercontent.com/githubpsyche/images/main/characters/Age_25-31_female_east-asian/cdf_AF-224_east-asian_female_29.jpg","trial_type":"html-button-response","trial_index":39,"time_elapsed":362896,"internal_node_id":"0.0-39.0","choice":"left","winner":1,"loser":2},{"rt":682,"stimulus":"<div class=\"trial-container\"><div class=\"character-container\">\n            <img src=\"https://raw.githubusercontent.com/githubpsyche/images/main/characters/Age_32-38_male_south-asian/cdf_IM-689_south-asian_male_33.jpg\" alt=\"Character south-asian male\">\n            <div>\n                <p>Race: South Asian</p>\n                <p>Sex: Male</p>\n                <p>Age: 33</p>\n            </div>\n        </div><div class=\"character-container\">\n            <img src=\"https://raw.githubusercontent.com/githubpsyche/images/main/characters/Age_39_female_latino/cdf_LF-238_latino_female_42.jpg\" alt=\"Character latino female\">\n            <div>\n                <p>Race: Latino</p>\n                <p>Sex: Female</p>\n                <p>Age: 42</p>\n            </div>\n        </div></div>","response":0,"left_index":0,"right_index":7,"left_image":"https://raw.githubusercontent.com/githubpsyche/images/main/characters/Age_32-38_male_south-asian/cdf_IM-689_south-asian_male_33.jpg","right_image":"https://raw.githubusercontent.com/githubpsyche/images/main/characters/Age_39_female_latino/cdf_LF-238_latino_female_42.jpg","trial_type":"html-button-response","trial_index":40,"time_elapsed":363579,"internal_node_id":"0.0-40.0","choice":"left","winner":0,"loser":7},{"rt":1298,"stimulus":"<div class=\"trial-container\"><div class=\"character-container\">\n            <img src=\"https://raw.githubusercontent.com/githubpsyche/images/main/characters/Age_39_male_latino/cdf_LM-236_latino_male_44.jpg\" alt=\"Character latino male\">\n            <div>\n                <p>Race: Latino</p>\n                <p>Sex: Male</p>\n                <p>Age: 44</p>\n            </div>\n        </div><div class=\"character-container\">\n            <img src=\"https://raw.githubusercontent.com/githubpsyche/images/main/characters/Age_25-31_male_east-asian/cdf_AM-225_east-asian_male_25.jpg\" alt=\"Character east-asian male\">\n            <div>\n                <p>Race: East Asian</p>\n                <p>Sex: Male</p>\n                <p>Age: 25</p>\n            </div>\n        </div></div>","response":1,"left_index":4,"right_index":6,"left_image":"https://raw.githubusercontent.com/githubpsyche/images/main/characters/Age_39_male_latino/cdf_LM-236_latino_male_44.jpg","right_image":"https://raw.githubusercontent.com/githubpsyche/images/main/characters/Age_25-31_male_east-asian/cdf_AM-225_east-asian_male_25.jpg","trial_type":"html-button-response","trial_index":41,"time_elapsed":364879,"internal_node_id":"0.0-41.0","choice":"right","winner":6,"loser":4},{"rt":1431,"stimulus":"<div class=\"trial-container\"><div class=\"character-container\">\n            <img src=\"https://raw.githubusercontent.com/githubpsyche/images/main/characters/Age_32-38_male_south-asian/cdf_IM-689_south-asian_male_33.jpg\" alt=\"Character south-asian male\">\n            <div>\n                <p>Race: South Asian</p>\n                <p>Sex: Male</p>\n                <p>Age: 33</p>\n            </div>\n        </div><div class=\"character-container\">\n            <img src=\"https://raw.githubusercontent.com/githubpsyche/images/main/characters/Age_39_male_east-asian/cdf_AM-226_east-asian_male_47.jpg\" alt=\"Character east-asian male\">\n            <div>\n                <p>Race: East Asian</p>\n                <p>Sex: Male</p>\n                <p>Age: 47</p>\n            </div>\n        </div></div>","response":0,"left_index":0,"right_index":1,"left_image":"https://raw.githubusercontent.com/githubpsyche/images/main/characters/Age_32-38_male_south-asian/cdf_IM-689_south-asian_male_33.jpg","right_image":"https://raw.githubusercontent.com/githubpsyche/images/main/characters/Age_39_male_east-asian/cdf_AM-226_east-asian_male_47.jpg","trial_type":"html-button-response","trial_index":42,"time_elapsed":366312,"internal_node_id":"0.0-42.0","choice":"left","winner":0,"loser":1},{"rt":1182,"stimulus":"<div class=\"trial-container\"><div class=\"character-container\">\n            <img src=\"https://raw.githubusercontent.com/githubpsyche/images/main/characters/Age_25-31_male_latino/cdf_LM-223_latino_male_29.jpg\" alt=\"Character latino male\">\n            <div>\n                <p>Race: Latino</p>\n                <p>Sex: Male</p>\n                <p>Age: 29</p>\n            </div>\n        </div><div class=\"character-container\">\n            <img src=\"https://raw.githubusercontent.com/githubpsyche/images/main/characters/Age_24_female_latino/cdf_LF-227_latino_female_21.jpg\" alt=\"Character latino female\">\n            <div>\n                <p>Race: Latino</p>\n                <p>Sex: Female</p>\n                <p>Age: 21</p>\n            </div>\n        </div></div>","response":1,"left_index":5,"right_index":8,"left_image":"https://raw.githubusercontent.com/githubpsyche/images/main/characters/Age_25-31_male_latino/cdf_LM-223_latino_male_29.jpg","right_image":"https://raw.githubusercontent.com/githubpsyche/images/main/characters/Age_24_female_latino/cdf_LF-227_latino_female_21.jpg","trial_type":"html-button-response","trial_index":43,"time_elapsed":367496,"internal_node_id":"0.0-43.0","choice":"right","winner":8,"loser":5},{"rt":998,"stimulus":"<div class=\"trial-container\"><div class=\"character-container\">\n            <img src=\"https://raw.githubusercontent.com/githubpsyche/images/main/characters/Age_32-38_male_south-asian/cdf_IM-689_south-asian_male_33.jpg\" alt=\"Character south-asian male\">\n            <div>\n                <p>Race: South Asian</p>\n                <p>Sex: Male</p>\n                <p>Age: 33</p>\n            </div>\n        </div><div class=\"character-container\">\n            <img src=\"https://raw.githubusercontent.com/githubpsyche/images/main/characters/Age_32-38_female_white/cdf_WF-241_white_female_33.jpg\" alt=\"Character white female\">\n            <div>\n                <p>Race: White</p>\n                <p>Sex: Female</p>\n                <p>Age: 33</p>\n            </div>\n        </div></div>","response":0,"left_index":0,"right_index":3,"left_image":"https://raw.githubusercontent.com/githubpsyche/images/main/characters/Age_32-38_male_south-asian/cdf_IM-689_south-asian_male_33.jpg","right_image":"https://raw.githubusercontent.com/githubpsyche/images/main/characters/Age_32-38_female_white/cdf_WF-241_white_female_33.jpg","trial_type":"html-button-response","trial_index":44,"time_elapsed":368496,"internal_node_id":"0.0-44.0","choice":"left","winner":0,"loser":3},{"rt":1565,"stimulus":"<div class=\"trial-container\"><div class=\"character-container\">\n            <img src=\"https://raw.githubusercontent.com/githubpsyche/images/main/characters/Age_25-31_male_latino/cdf_LM-223_latino_male_29.jpg\" alt=\"Character latino male\">\n            <div>\n                <p>Race: Latino</p>\n                <p>Sex: Male</p>\n                <p>Age: 29</p>\n            </div>\n        </div><div class=\"character-container\">\n            <img src=\"https://raw.githubusercontent.com/githubpsyche/images/main/characters/Age_39_female_latino/cdf_LF-238_latino_female_42.jpg\" alt=\"Character latino female\">\n            <div>\n                <p>Race: Latino</p>\n                <p>Sex: Female</p>\n                <p>Age: 42</p>\n            </div>\n        </div></div>","response":0,"left_index":5,"right_index":7,"left_image":"https://raw.githubusercontent.com/githubpsyche/images/main/characters/Age_25-31_male_latino/cdf_LM-223_latino_male_29.jpg","right_image":"https://raw.githubusercontent.com/githubpsyche/images/main/characters/Age_39_female_latino/cdf_LF-238_latino_female_42.jpg","trial_type":"html-button-response","trial_index":45,"time_elapsed":370062,"internal_node_id":"0.0-45.0","choice":"left","winner":5,"loser":7},{"rt":1349,"stimulus":"<div class=\"trial-container\"><div class=\"character-container\">\n            <img src=\"https://raw.githubusercontent.com/githubpsyche/images/main/characters/Age_32-38_female_white/cdf_WF-241_white_female_33.jpg\" alt=\"Character white female\">\n            <div>\n                <p>Race: White</p>\n                <p>Sex: Female</p>\n                <p>Age: 33</p>\n            </div>\n        </div><div class=\"character-container\">\n            <img src=\"https://raw.githubusercontent.com/githubpsyche/images/main/characters/Age_39_male_latino/cdf_LM-236_latino_male_44.jpg\" alt=\"Character latino male\">\n            <div>\n                <p>Race: Latino</p>\n                <p>Sex: Male</p>\n                <p>Age: 44</p>\n            </div>\n        </div></div>","response":1,"left_index":3,"right_index":4,"left_image":"https://raw.githubusercontent.com/githubpsyche/images/main/characters/Age_32-38_female_white/cdf_WF-241_white_female_33.jpg","right_image":"https://raw.githubusercontent.com/githubpsyche/images/main/characters/Age_39_male_latino/cdf_LM-236_latino_male_44.jpg","trial_type":"html-button-response","trial_index":46,"time_elapsed":371412,"internal_node_id":"0.0-46.0","choice":"right","winner":4,"loser":3},{"rt":2812,"response":{"deception":"yes"},"trial_type":"survey-html-form","trial_index":47,"time_elapsed":374232,"internal_node_id":"0.0-47.0"},{"view_history":[{"page_index":0,"viewing_time":1295}],"rt":1295,"trial_type":"instructions","trial_index":48,"time_elapsed":375528,"internal_node_id":"0.0-48.0"}]
