[{"view_history":[{"page_index":0,"viewing_time":409579}],"rt":409580,"condition":1,"ordering":1,"trial_type":"instructions","trial_index":0,"time_elapsed":409660,"internal_node_id":"0.0-0.0"},{"view_history":[{"page_index":0,"viewing_time":1627}],"rt":1627,"trial_type":"instructions","trial_index":1,"time_elapsed":411289,"internal_node_id":"0.0-1.0"},{"rt":8806,"response":{"race":"White","gender":"man","age":"33","college":"yes"},"trial_type":"survey-html-form","trial_index":2,"time_elapsed":420099,"internal_node_id":"0.0-2.0"},{"rt":3771,"stimulus":"<h2>Rating</h2><p>On a scale from 1–10, how typically successful are you in competitive environments?</p>","slider_start":5,"response":9,"trial_type":"html-slider-response","trial_index":3,"time_elapsed":423875,"internal_node_id":"0.0-3.0"},{"rt":null,"stimulus":"\n        <p style=\"font-size: 20px;\">Loading...</p>\n        <img src=\"experiments/sortablerank/loading.gif\" style=\"width: 100px; height: 100px;\">","response":null,"trial_type":"html-keyboard-response","trial_index":4,"time_elapsed":425879,"internal_node_id":"0.0-4.0"},{"view_history":[{"page_index":0,"viewing_time":1289},{"page_index":1,"viewing_time":1161}],"rt":2450,"condition":1,"trial_type":"instructions","trial_index":5,"time_elapsed":428330,"internal_node_id":"0.0-5.0"},{"rt":null,"stimulus":"\n        <p style=\"font-size: 20px;\">One moment. We are sorting you into a lobby.</p>\n        <img src=\"experiments/sortablerank/loading.gif\" style=\"width: 100px; height: 100px;\">","response":null,"trial_type":"html-keyboard-response","trial_index":6,"time_elapsed":432333,"internal_node_id":"0.0-6.0"},{"view_history":[{"page_index":0,"viewing_time":2630}],"rt":2630,"condition":1,"trial_type":"instructions","trial_index":7,"time_elapsed":434964,"internal_node_id":"0.0-7.0"},{"unsorted_items":[],"team_left_items":[{"index":8,"label":"https://raw.githubusercontent.com/githubpsyche/images/main/characters/Age_32-38_female_white/cdf_WF-226_white_female_32.jpg","content":"\n            <img src=\"https://raw.githubusercontent.com/githubpsyche/images/main/characters/Age_32-38_female_white/cdf_WF-226_white_female_32.jpg\" alt=\"Character white female\">\n            <div>\n                <p>Race: White</p>\n                <p>Sex: Female</p>\n                <p>Age: 32</p>\n            </div>\n        "},{"index":6,"label":"https://raw.githubusercontent.com/githubpsyche/images/main/characters/Age_25-31_female_east-asian/cdf_AF-230_east-asian_female_24.jpg","content":"\n            <img src=\"https://raw.githubusercontent.com/githubpsyche/images/main/characters/Age_25-31_female_east-asian/cdf_AF-230_east-asian_female_24.jpg\" alt=\"Character east-asian female\">\n            <div>\n                <p>Race: East Asian</p>\n                <p>Sex: Female</p>\n                <p>Age: 24</p>\n            </div>\n        "},{"index":4,"label":"https://raw.githubusercontent.com/githubpsyche/images/main/characters/Age_39_female_white/cdf_WF-246_white_female_43.jpg","content":"\n            <img src=\"https://raw.githubusercontent.com/githubpsyche/images/main/characters/Age_39_female_white/cdf_WF-246_white_female_43.jpg\" alt=\"Character white female\">\n            <div>\n                <p>Race: White</p>\n                <p>Sex: Female</p>\n                <p>Age: 43</p>\n            </div>\n        "},{"index":2,"label":"https://raw.githubusercontent.com/githubpsyche/images/main/characters/Age_24_female_white/cdf_WF-012_white_female_23.jpg","content":"\n            <img src=\"https://raw.githubusercontent.com/githubpsyche/images/main/characters/Age_24_female_white/cdf_WF-012_white_female_23.jpg\" alt=\"Character white female\">\n            <div>\n                <p>Race: White</p>\n                <p>Sex: Female</p>\n                <p>Age: 23</p>\n            </div>\n        "},{"index":"locked","label":"locked","content":"<span class=\"rank-number\">5</span><span class=\"lock-icon\">🔒</span><div>\n            <img src=\"experiments/sortablerank/user.png\" alt=\"Participant\">\n            <div>\n                <p><strong>You (Leader)</strong></p>\n            </div>\n        </div>"}],"team_right_items":[{"index":9,"label":"https://raw.githubusercontent.com/githubpsyche/images/main/characters/Age_32-38_male_black/cdf_BM-222_black_male_36.jpg","content":"\n            <img src=\"https://raw.githubusercontent.com/githubpsyche/images/main/characters/Age_32-38_male_black/cdf_BM-222_black_male_36.jpg\" alt=\"Character black male\">\n            <div>\n                <p>Race: Black</p>\n                <p>Sex: Male</p>\n                <p>Age: 36</p>\n            </div>\n        "},{"index":7,"label":"https://raw.githubusercontent.com/githubpsyche/images/main/characters/Age_25-31_female_black/cdf_BF-048_black_female_31.jpg","content":"\n            <img src=\"https://raw.githubusercontent.com/githubpsyche/images/main/characters/Age_25-31_female_black/cdf_BF-048_black_female_31.jpg\" alt=\"Character black female\">\n            <div>\n                <p>Race: Black</p>\n                <p>Sex: Female</p>\n                <p>Age: 31</p>\n            </div>\n        "},{"index":5,"label":"https://raw.githubusercontent.com/githubpsyche/images/main/characters/Age_24_male_latino/cdf_LM-242_latino_male_21.jpg","content":"\n            <img src=\"https://raw.githubusercontent.com/githubpsyche/images/main/characters/Age_24_male_latino/cdf_LM-242_latino_male_21.jpg\" alt=\"Character latino male\">\n            <div>\n                <p>Race: Latino</p>\n                <p>Sex: Male</p>\n                <p>Age: 21</p>\n            </div>\n        "},{"index":3,"label":"https://raw.githubusercontent.com/githubpsyche/images/main/characters/Age_25-31_male_white/cdf_WM-021_white_male_29.jpg","content":"\n            <img src=\"https://raw.githubusercontent.com/githubpsyche/images/main/characters/Age_25-31_male_white/cdf_WM-021_white_male_29.jpg\" alt=\"Character white male\">\n            <div>\n                <p>Race: White</p>\n                <p>Sex: Male</p>\n                <p>Age: 29</p>\n            </div>\n        "},{"index":1,"label":"https://raw.githubusercontent.com/githubpsyche/images/main/characters/Age_32-38_male_east-asian/cdf_AM-235_east-asian_male_35.jpg","content":"\n            <img src=\"https://raw.githubusercontent.com/githubpsyche/images/main/characters/Age_32-38_male_east-asian/cdf_AM-235_east-asian_male_35.jpg\" alt=\"Character east-asian male\">\n            <div>\n                <p>Race: East Asian</p>\n                <p>Sex: Male</p>\n                <p>Age: 35</p>\n            </div>\n        "}],"trial_type":"sortable-rank","trial_index":8,"time_elapsed":453154,"internal_node_id":"0.0-8.0"},{"rt":null,"stimulus":"\n        <p style=\"font-size: 20px;\">Loading...</p>\n        <img src=\"experiments/sortablerank/loading.gif\" style=\"width: 100px; height: 100px;\">","response":null,"trial_type":"html-keyboard-response","trial_index":9,"time_elapsed":455157,"internal_node_id":"0.0-9.0"},{"view_history":[{"page_index":0,"viewing_time":2130}],"rt":2130,"condition":1,"trial_type":"instructions","trial_index":10,"time_elapsed":457288,"internal_node_id":"0.0-10.0"},{"rt":4723,"stimulus":"<div class=\"trial-container\"><div class=\"character-container\">\n            <img src=\"https://raw.githubusercontent.com/githubpsyche/images/main/characters/Age_25-31_male_white/cdf_WM-021_white_male_29.jpg\" alt=\"Character white male\">\n            <div>\n                <p>Race: White</p>\n                <p>Sex: Male</p>\n                <p>Age: 29</p>\n            </div>\n        </div><div class=\"character-container\">\n            <img src=\"https://raw.githubusercontent.com/githubpsyche/images/main/characters/Age_25-31_female_east-asian/cdf_AF-230_east-asian_female_24.jpg\" alt=\"Character east-asian female\">\n            <div>\n                <p>Race: East Asian</p>\n                <p>Sex: Female</p>\n                <p>Age: 24</p>\n            </div>\n        </div></div>","response":1,"left_index":2,"right_index":5,"left_image":"https://raw.githubusercontent.com/githubpsyche/images/main/characters/Age_25-31_male_white/cdf_WM-021_white_male_29.jpg","right_image":"https://raw.githubusercontent.com/githubpsyche/images/main/characters/Age_25-31_female_east-asian/cdf_AF-230_east-asian_female_24.jpg","trial_type":"html-button-response","trial_index":11,"time_elapsed":462017,"internal_node_id":"0.0-11.0","choice":"right","winner":5,"loser":2},{"rt":651,"stimulus":"<div class=\"trial-container\"><div class=\"character-container\">\n            <img src=\"https://raw.githubusercontent.com/githubpsyche/images/main/characters/Age_24_male_latino/cdf_LM-242_latino_male_21.jpg\" alt=\"Character latino male\">\n            <div>\n                <p>Race: Latino</p>\n                <p>Sex: Male</p>\n                <p>Age: 21</p>\n            </div>\n        </div><div class=\"character-container\">\n            <img src=\"https://raw.githubusercontent.com/githubpsyche/images/main/characters/Age_32-38_male_black/cdf_BM-222_black_male_36.jpg\" alt=\"Character black male\">\n            <div>\n                <p>Race: Black</p>\n                <p>Sex: Male</p>\n                <p>Age: 36</p>\n            </div>\n        </div></div>","response":1,"left_index":4,"right_index":8,"left_image":"https://raw.githubusercontent.com/githubpsyche/images/main/characters/Age_24_male_latino/cdf_LM-242_latino_male_21.jpg","right_image":"https://raw.githubusercontent.com/githubpsyche/images/main/characters/Age_32-38_male_black/cdf_BM-222_black_male_36.jpg","trial_type":"html-button-response","trial_index":12,"time_elapsed":462698,"internal_node_id":"0.0-12.0","choice":"right","winner":8,"loser":4},{"rt":1788,"stimulus":"<div class=\"trial-container\"><div class=\"character-container\">\n            <img src=\"https://raw.githubusercontent.com/githubpsyche/images/main/characters/Age_25-31_female_black/cdf_BF-048_black_female_31.jpg\" alt=\"Character black female\">\n            <div>\n                <p>Race: Black</p>\n                <p>Sex: Female</p>\n                <p>Age: 31</p>\n            </div>\n        </div><div class=\"character-container\">\n            <img src=\"https://raw.githubusercontent.com/githubpsyche/images/main/characters/Age_32-38_female_white/cdf_WF-226_white_female_32.jpg\" alt=\"Character white female\">\n            <div>\n                <p>Race: White</p>\n                <p>Sex: Female</p>\n                <p>Age: 32</p>\n            </div>\n        </div></div>","response":0,"left_index":6,"right_index":7,"left_image":"https://raw.githubusercontent.com/githubpsyche/images/main/characters/Age_25-31_female_black/cdf_BF-048_black_female_31.jpg","right_image":"https://raw.githubusercontent.com/githubpsyche/images/main/characters/Age_32-38_female_white/cdf_WF-226_white_female_32.jpg","trial_type":"html-button-response","trial_index":13,"time_elapsed":464488,"internal_node_id":"0.0-13.0","choice":"left","winner":6,"loser":7},{"rt":637,"stimulus":"<div class=\"trial-container\"><div class=\"character-container\">\n            <img src=\"https://raw.githubusercontent.com/githubpsyche/images/main/characters/Age_32-38_male_east-asian/cdf_AM-235_east-asian_male_35.jpg\" alt=\"Character east-asian male\">\n            <div>\n                <p>Race: East Asian</p>\n                <p>Sex: Male</p>\n                <p>Age: 35</p>\n            </div>\n        </div><div class=\"character-container\">\n            <img src=\"https://raw.githubusercontent.com/githubpsyche/images/main/characters/Age_32-38_male_black/cdf_BM-222_black_male_36.jpg\" alt=\"Character black male\">\n            <div>\n                <p>Race: Black</p>\n                <p>Sex: Male</p>\n                <p>Age: 36</p>\n            </div>\n        </div></div>","response":0,"left_index":0,"right_index":8,"left_image":"https://raw.githubusercontent.com/githubpsyche/images/main/characters/Age_32-38_male_east-asian/cdf_AM-235_east-asian_male_35.jpg","right_image":"https://raw.githubusercontent.com/githubpsyche/images/main/characters/Age_32-38_male_black/cdf_BM-222_black_male_36.jpg","trial_type":"html-button-response","trial_index":14,"time_elapsed":465127,"internal_node_id":"0.0-14.0","choice":"left","winner":0,"loser":8},{"rt":584,"stimulus":"<div class=\"trial-container\"><div class=\"character-container\">\n            <img src=\"https://raw.githubusercontent.com/githubpsyche/images/main/characters/Age_25-31_male_white/cdf_WM-021_white_male_29.jpg\" alt=\"Character white male\">\n            <div>\n                <p>Race: White</p>\n                <p>Sex: Male</p>\n                <p>Age: 29</p>\n            </div>\n        </div><div class=\"character-container\">\n            <img src=\"https://raw.githubusercontent.com/githubpsyche/images/main/characters/Age_39_female_white/cdf_WF-246_white_female_43.jpg\" alt=\"Character white female\">\n            <div>\n                <p>Race: White</p>\n                <p>Sex: Female</p>\n                <p>Age: 43</p>\n            </div>\n        </div></div>","response":0,"left_index":2,"right_index":3,"left_image":"https://raw.githubusercontent.com/githubpsyche/images/main/characters/Age_25-31_male_white/cdf_WM-021_white_male_29.jpg","right_image":"https://raw.githubusercontent.com/githubpsyche/images/main/characters/Age_39_female_white/cdf_WF-246_white_female_43.jpg","trial_type":"html-button-response","trial_index":15,"time_elapsed":465727,"internal_node_id":"0.0-15.0","choice":"left","winner":2,"loser":3},{"rt":1287,"stimulus":"<div class=\"trial-container\"><div class=\"character-container\">\n            <img src=\"https://raw.githubusercontent.com/githubpsyche/images/main/characters/Age_24_female_white/cdf_WF-012_white_female_23.jpg\" alt=\"Character white female\">\n            <div>\n                <p>Race: White</p>\n                <p>Sex: Female</p>\n                <p>Age: 23</p>\n            </div>\n        </div><div class=\"character-container\">\n            <img src=\"https://raw.githubusercontent.com/githubpsyche/images/main/characters/Age_25-31_female_east-asian/cdf_AF-230_east-asian_female_24.jpg\" alt=\"Character east-asian female\">\n            <div>\n                <p>Race: East Asian</p>\n                <p>Sex: Female</p>\n                <p>Age: 24</p>\n            </div>\n        </div></div>","response":0,"left_index":1,"right_index":5,"left_image":"https://raw.githubusercontent.com/githubpsyche/images/main/characters/Age_24_female_white/cdf_WF-012_white_female_23.jpg","right_image":"https://raw.githubusercontent.com/githubpsyche/images/main/characters/Age_25-31_female_east-asian/cdf_AF-230_east-asian_female_24.jpg","trial_type":"html-button-response","trial_index":16,"time_elapsed":467016,"internal_node_id":"0.0-16.0","choice":"left","winner":1,"loser":5},{"rt":645,"stimulus":"<div class=\"trial-container\"><div class=\"character-container\">\n            <img src=\"https://raw.githubusercontent.com/githubpsyche/images/main/characters/Age_32-38_male_east-asian/cdf_AM-235_east-asian_male_35.jpg\" alt=\"Character east-asian male\">\n            <div>\n                <p>Race: East Asian</p>\n                <p>Sex: Male</p>\n                <p>Age: 35</p>\n            </div>\n        </div><div class=\"character-container\">\n            <img src=\"https://raw.githubusercontent.com/githubpsyche/images/main/characters/Age_32-38_female_white/cdf_WF-226_white_female_32.jpg\" alt=\"Character white female\">\n            <div>\n                <p>Race: White</p>\n                <p>Sex: Female</p>\n                <p>Age: 32</p>\n            </div>\n        </div></div>","response":0,"left_index":0,"right_index":7,"left_image":"https://raw.githubusercontent.com/githubpsyche/images/main/characters/Age_32-38_male_east-asian/cdf_AM-235_east-asian_male_35.jpg","right_image":"https://raw.githubusercontent.com/githubpsyche/images/main/characters/Age_32-38_female_white/cdf_WF-226_white_female_32.jpg","trial_type":"html-button-response","trial_index":17,"time_elapsed":467663,"internal_node_id":"0.0-17.0","choice":"left","winner":0,"loser":7},{"rt":584,"stimulus":"<div class=\"trial-container\"><div class=\"character-container\">\n            <img src=\"https://raw.githubusercontent.com/githubpsyche/images/main/characters/Age_24_male_latino/cdf_LM-242_latino_male_21.jpg\" alt=\"Character latino male\">\n            <div>\n                <p>Race: Latino</p>\n                <p>Sex: Male</p>\n                <p>Age: 21</p>\n            </div>\n        </div><div class=\"character-container\">\n            <img src=\"https://raw.githubusercontent.com/githubpsyche/images/main/characters/Age_25-31_female_black/cdf_BF-048_black_female_31.jpg\" alt=\"Character black female\">\n            <div>\n                <p>Race: Black</p>\n                <p>Sex: Female</p>\n                <p>Age: 31</p>\n            </div>\n        </div></div>","response":0,"left_index":4,"right_index":6,"left_image":"https://raw.githubusercontent.com/githubpsyche/images/main/characters/Age_24_male_latino/cdf_LM-242_latino_male_21.jpg","right_image":"https://raw.githubusercontent.com/githubpsyche/images/main/characters/Age_25-31_female_black/cdf_BF-048_black_female_31.jpg","trial_type":"html-button-response","trial_index":18,"time_elapsed":468249,"internal_node_id":"0.0-18.0","choice":"left","winner":4,"loser":6},{"rt":510,"stimulus":"<div class=\"trial-container\"><div class=\"character-container\">\n            <img src=\"https://raw.githubusercontent.com/githubpsyche/images/main/characters/Age_25-31_male_white/cdf_WM-021_white_male_29.jpg\" alt=\"Character white male\">\n            <div>\n                <p>Race: White</p>\n                <p>Sex: Male</p>\n                <p>Age: 29</p>\n            </div>\n        </div><div class=\"character-container\">\n            <img src=\"https://raw.githubusercontent.com/githubpsyche/images/main/characters/Age_32-38_male_black/cdf_BM-222_black_male_36.jpg\" alt=\"Character black male\">\n            <div>\n                <p>Race: Black</p>\n                <p>Sex: Male</p>\n                <p>Age: 36</p>\n            </div>\n        </div></div>","response":0,"left_index":2,"right_index":8,"left_image":"https://raw.githubusercontent.com/githubpsyche/images/main/characters/Age_25-31_male_white/cdf_WM-021_white_male_29.jpg","right_image":"https://raw.githubusercontent.com/githubpsyche/images/main/characters/Age_32-38_male_black/cdf_BM-222_black_male_36.jpg","trial_type":"html-button-response","trial_index":19,"time_elapsed":468761,"internal_node_id":"0.0-19.0","choice":"left","winner":2,"loser":8},{"rt":512,"stimulus":"<div class=\"trial-container\"><div class=\"character-container\">\n            <img src=\"https://raw.githubusercontent.com/githubpsyche/images/main/characters/Age_24_male_latino/cdf_LM-242_latino_male_21.jpg\" alt=\"Character latino male\">\n            <div>\n                <p>Race: Latino</p>\n                <p>Sex: Male</p>\n                <p>Age: 21</p>\n            </div>\n        </div><div class=\"character-container\">\n            <img src=\"https://raw.githubusercontent.com/githubpsyche/images/main/characters/Age_32-38_female_white/cdf_WF-226_white_female_32.jpg\" alt=\"Character white female\">\n            <div>\n                <p>Race: White</p>\n                <p>Sex: Female</p>\n                <p>Age: 32</p>\n            </div>\n        </div></div>","response":0,"left_index":4,"right_index":7,"left_image":"https://raw.githubusercontent.com/githubpsyche/images/main/characters/Age_24_male_latino/cdf_LM-242_latino_male_21.jpg","right_image":"https://raw.githubusercontent.com/githubpsyche/images/main/characters/Age_32-38_female_white/cdf_WF-226_white_female_32.jpg","trial_type":"html-button-response","trial_index":20,"time_elapsed":469274,"internal_node_id":"0.0-20.0","choice":"left","winner":4,"loser":7},{"rt":655,"stimulus":"<div class=\"trial-container\"><div class=\"character-container\">\n            <img src=\"https://raw.githubusercontent.com/githubpsyche/images/main/characters/Age_32-38_male_east-asian/cdf_AM-235_east-asian_male_35.jpg\" alt=\"Character east-asian male\">\n            <div>\n                <p>Race: East Asian</p>\n                <p>Sex: Male</p>\n                <p>Age: 35</p>\n            </div>\n        </div><div class=\"character-container\">\n            <img src=\"https://raw.githubusercontent.com/githubpsyche/images/main/characters/Age_25-31_female_black/cdf_BF-048_black_female_31.jpg\" alt=\"Character black female\">\n            <div>\n                <p>Race: Black</p>\n                <p>Sex: Female</p>\n                <p>Age: 31</p>\n            </div>\n        </div></div>","response":0,"left_index":0,"right_index":6,"left_image":"https://raw.githubusercontent.com/githubpsyche/images/main/characters/Age_32-38_male_east-asian/cdf_AM-235_east-asian_male_35.jpg","right_image":"https://raw.githubusercontent.com/githubpsyche/images/main/characters/Age_25-31_female_black/cdf_BF-048_black_female_31.jpg","trial_type":"html-button-response","trial_index":21,"time_elapsed":469931,"internal_node_id":"0.0-21.0","choice":"left","winner":0,"loser":6},{"rt":579,"stimulus":"<div class=\"trial-container\"><div class=\"character-container\">\n            <img src=\"https://raw.githubusercontent.com/githubpsyche/images/main/characters/Age_39_female_white/cdf_WF-246_white_female_43.jpg\" alt=\"Character white female\">\n            <div>\n                <p>Race: White</p>\n                <p>Sex: Female</p>\n                <p>Age: 43</p>\n            </div>\n        </div><div class=\"character-container\">\n            <img src=\"https://raw.githubusercontent.com/githubpsyche/images/main/characters/Age_24_male_latino/cdf_LM-242_latino_male_21.jpg\" alt=\"Character latino male\">\n            <div>\n                <p>Race: Latino</p>\n                <p>Sex: Male</p>\n                <p>Age: 21</p>\n            </div>\n        </div></div>","response":0,"left_index":3,"right_index":4,"left_image":"https://raw.githubusercontent.com/githubpsyche/images/main/characters/Age_39_female_white/cdf_WF-246_white_female_43.jpg","right_image":"https://raw.githubusercontent.com/githubpsyche/images/main/characters/Age_24_male_latino/cdf_LM-242_latino_male_21.jpg","trial_type":"html-button-response","trial_index":22,"time_elapsed":470511,"internal_node_id":"0.0-22.0","choice":"left","winner":3,"loser":4},{"rt":653,"stimulus":"<div class=\"trial-container\"><div class=\"character-container\">\n            <img src=\"https://raw.githubusercontent.com/githubpsyche/images/main/characters/Age_32-38_male_east-asian/cdf_AM-235_east-asian_male_35.jpg\" alt=\"Character east-asian male\">\n            <div>\n                <p>Race: East Asian</p>\n                <p>Sex: Male</p>\n                <p>Age: 35</p>\n            </div>\n        </div><div class=\"character-container\">\n            <img src=\"https://raw.githubusercontent.com/githubpsyche/images/main/characters/Age_24_female_white/cdf_WF-012_white_female_23.jpg\" alt=\"Character white female\">\n            <div>\n                <p>Race: White</p>\n                <p>Sex: Female</p>\n                <p>Age: 23</p>\n            </div>\n        </div></div>","response":0,"left_index":0,"right_index":1,"left_image":"https://raw.githubusercontent.com/githubpsyche/images/main/characters/Age_32-38_male_east-asian/cdf_AM-235_east-asian_male_35.jpg","right_image":"https://raw.githubusercontent.com/githubpsyche/images/main/characters/Age_24_female_white/cdf_WF-012_white_female_23.jpg","trial_type":"html-button-response","trial_index":23,"time_elapsed":471165,"internal_node_id":"0.0-23.0","choice":"left","winner":0,"loser":1},{"rt":505,"stimulus":"<div class=\"trial-container\"><div class=\"character-container\">\n            <img src=\"https://raw.githubusercontent.com/githubpsyche/images/main/characters/Age_39_female_white/cdf_WF-246_white_female_43.jpg\" alt=\"Character white female\">\n            <div>\n                <p>Race: White</p>\n                <p>Sex: Female</p>\n                <p>Age: 43</p>\n            </div>\n        </div><div class=\"character-container\">\n            <img src=\"https://raw.githubusercontent.com/githubpsyche/images/main/characters/Age_25-31_female_black/cdf_BF-048_black_female_31.jpg\" alt=\"Character black female\">\n            <div>\n                <p>Race: Black</p>\n                <p>Sex: Female</p>\n                <p>Age: 31</p>\n            </div>\n        </div></div>","response":0,"left_index":3,"right_index":6,"left_image":"https://raw.githubusercontent.com/githubpsyche/images/main/characters/Age_39_female_white/cdf_WF-246_white_female_43.jpg","right_image":"https://raw.githubusercontent.com/githubpsyche/images/main/characters/Age_25-31_female_black/cdf_BF-048_black_female_31.jpg","trial_type":"html-button-response","trial_index":24,"time_elapsed":471673,"internal_node_id":"0.0-24.0","choice":"left","winner":3,"loser":6},{"rt":508,"stimulus":"<div class=\"trial-container\"><div class=\"character-container\">\n            <img src=\"https://raw.githubusercontent.com/githubpsyche/images/main/characters/Age_32-38_male_east-asian/cdf_AM-235_east-asian_male_35.jpg\" alt=\"Character east-asian male\">\n            <div>\n                <p>Race: East Asian</p>\n                <p>Sex: Male</p>\n                <p>Age: 35</p>\n            </div>\n        </div><div class=\"character-container\">\n            <img src=\"https://raw.githubusercontent.com/githubpsyche/images/main/characters/Age_25-31_female_east-asian/cdf_AF-230_east-asian_female_24.jpg\" alt=\"Character east-asian female\">\n            <div>\n                <p>Race: East Asian</p>\n                <p>Sex: Female</p>\n                <p>Age: 24</p>\n            </div>\n        </div></div>","response":0,"left_index":0,"right_index":5,"left_image":"https://raw.githubusercontent.com/githubpsyche/images/main/characters/Age_32-38_male_east-asian/cdf_AM-235_east-asian_male_35.jpg","right_image":"https://raw.githubusercontent.com/githubpsyche/images/main/characters/Age_25-31_female_east-asian/cdf_AF-230_east-asian_female_24.jpg","trial_type":"html-button-response","trial_index":25,"time_elapsed":472182,"internal_node_id":"0.0-25.0","choice":"left","winner":0,"loser":5},{"rt":647,"stimulus":"<div class=\"trial-container\"><div class=\"character-container\">\n            <img src=\"https://raw.githubusercontent.com/githubpsyche/images/main/characters/Age_24_female_white/cdf_WF-012_white_female_23.jpg\" alt=\"Character white female\">\n            <div>\n                <p>Race: White</p>\n                <p>Sex: Female</p>\n                <p>Age: 23</p>\n            </div>\n        </div><div class=\"character-container\">\n            <img src=\"https://raw.githubusercontent.com/githubpsyche/images/main/characters/Age_39_female_white/cdf_WF-246_white_female_43.jpg\" alt=\"Character white female\">\n            <div>\n                <p>Race: White</p>\n                <p>Sex: Female</p>\n                <p>Age: 43</p>\n            </div>\n        </div></div>","response":0,"left_index":1,"right_index":3,"left_image":"https://raw.githubusercontent.com/githubpsyche/images/main/characters/Age_24_female_white/cdf_WF-012_white_female_23.jpg","right_image":"https://raw.githubusercontent.com/githubpsyche/images/main/characters/Age_39_female_white/cdf_WF-246_white_female_43.jpg","trial_type":"html-button-response","trial_index":26,"time_elapsed":472831,"internal_node_id":"0.0-26.0","choice":"left","winner":1,"loser":3},{"rt":636,"stimulus":"<div class=\"trial-container\"><div class=\"character-container\">\n            <img src=\"https://raw.githubusercontent.com/githubpsyche/images/main/characters/Age_25-31_female_east-asian/cdf_AF-230_east-asian_female_24.jpg\" alt=\"Character east-asian female\">\n            <div>\n                <p>Race: East Asian</p>\n                <p>Sex: Female</p>\n                <p>Age: 24</p>\n            </div>\n        </div><div class=\"character-container\">\n            <img src=\"https://raw.githubusercontent.com/githubpsyche/images/main/characters/Age_32-38_female_white/cdf_WF-226_white_female_32.jpg\" alt=\"Character white female\">\n            <div>\n                <p>Race: White</p>\n                <p>Sex: Female</p>\n                <p>Age: 32</p>\n            </div>\n        </div></div>","response":0,"left_index":5,"right_index":7,"left_image":"https://raw.githubusercontent.com/githubpsyche/images/main/characters/Age_25-31_female_east-asian/cdf_AF-230_east-asian_female_24.jpg","right_image":"https://raw.githubusercontent.com/githubpsyche/images/main/characters/Age_32-38_female_white/cdf_WF-226_white_female_32.jpg","trial_type":"html-button-response","trial_index":27,"time_elapsed":473470,"internal_node_id":"0.0-27.0","choice":"left","winner":5,"loser":7},{"rt":681,"stimulus":"<div class=\"trial-container\"><div class=\"character-container\">\n            <img src=\"https://raw.githubusercontent.com/githubpsyche/images/main/characters/Age_24_female_white/cdf_WF-012_white_female_23.jpg\" alt=\"Character white female\">\n            <div>\n                <p>Race: White</p>\n                <p>Sex: Female</p>\n                <p>Age: 23</p>\n            </div>\n        </div><div class=\"character-container\">\n            <img src=\"https://raw.githubusercontent.com/githubpsyche/images/main/characters/Age_25-31_male_white/cdf_WM-021_white_male_29.jpg\" alt=\"Character white male\">\n            <div>\n                <p>Race: White</p>\n                <p>Sex: Male</p>\n                <p>Age: 29</p>\n            </div>\n        </div></div>","response":0,"left_index":1,"right_index":2,"left_image":"https://raw.githubusercontent.com/githubpsyche/images/main/characters/Age_24_female_white/cdf_WF-012_white_female_23.jpg","right_image":"https://raw.githubusercontent.com/githubpsyche/images/main/characters/Age_25-31_male_white/cdf_WM-021_white_male_29.jpg","trial_type":"html-button-response","trial_index":28,"time_elapsed":474152,"internal_node_id":"0.0-28.0","choice":"left","winner":1,"loser":2},{"rt":646,"stimulus":"<div class=\"trial-container\"><div class=\"character-container\">\n            <img src=\"https://raw.githubusercontent.com/githubpsyche/images/main/characters/Age_32-38_female_white/cdf_WF-226_white_female_32.jpg\" alt=\"Character white female\">\n            <div>\n                <p>Race: White</p>\n                <p>Sex: Female</p>\n                <p>Age: 32</p>\n            </div>\n        </div><div class=\"character-container\">\n            <img src=\"https://raw.githubusercontent.com/githubpsyche/images/main/characters/Age_32-38_male_black/cdf_BM-222_black_male_36.jpg\" alt=\"Character black male\">\n            <div>\n                <p>Race: Black</p>\n                <p>Sex: Male</p>\n                <p>Age: 36</p>\n            </div>\n        </div></div>","response":0,"left_index":7,"right_index":8,"left_image":"https://raw.githubusercontent.com/githubpsyche/images/main/characters/Age_32-38_female_white/cdf_WF-226_white_female_32.jpg","right_image":"https://raw.githubusercontent.com/githubpsyche/images/main/characters/Age_32-38_male_black/cdf_BM-222_black_male_36.jpg","trial_type":"html-button-response","trial_index":29,"time_elapsed":474800,"internal_node_id":"0.0-29.0","choice":"left","winner":7,"loser":8},{"rt":679,"stimulus":"<div class=\"trial-container\"><div class=\"character-container\">\n            <img src=\"https://raw.githubusercontent.com/githubpsyche/images/main/characters/Age_24_female_white/cdf_WF-012_white_female_23.jpg\" alt=\"Character white female\">\n            <div>\n                <p>Race: White</p>\n                <p>Sex: Female</p>\n                <p>Age: 23</p>\n            </div>\n        </div><div class=\"character-container\">\n            <img src=\"https://raw.githubusercontent.com/githubpsyche/images/main/characters/Age_24_male_latino/cdf_LM-242_latino_male_21.jpg\" alt=\"Character latino male\">\n            <div>\n                <p>Race: Latino</p>\n                <p>Sex: Male</p>\n                <p>Age: 21</p>\n            </div>\n        </div></div>","response":0,"left_index":1,"right_index":4,"left_image":"https://raw.githubusercontent.com/githubpsyche/images/main/characters/Age_24_female_white/cdf_WF-012_white_female_23.jpg","right_image":"https://raw.githubusercontent.com/githubpsyche/images/main/characters/Age_24_male_latino/cdf_LM-242_latino_male_21.jpg","trial_type":"html-button-response","trial_index":30,"time_elapsed":475481,"internal_node_id":"0.0-30.0","choice":"left","winner":1,"loser":4},{"rt":522,"stimulus":"<div class=\"trial-container\"><div class=\"character-container\">\n            <img src=\"https://raw.githubusercontent.com/githubpsyche/images/main/characters/Age_39_female_white/cdf_WF-246_white_female_43.jpg\" alt=\"Character white female\">\n            <div>\n                <p>Race: White</p>\n                <p>Sex: Female</p>\n                <p>Age: 43</p>\n            </div>\n        </div><div class=\"character-container\">\n            <img src=\"https://raw.githubusercontent.com/githubpsyche/images/main/characters/Age_32-38_male_black/cdf_BM-222_black_male_36.jpg\" alt=\"Character black male\">\n            <div>\n                <p>Race: Black</p>\n                <p>Sex: Male</p>\n                <p>Age: 36</p>\n            </div>\n        </div></div>","response":0,"left_index":3,"right_index":8,"left_image":"https://raw.githubusercontent.com/githubpsyche/images/main/characters/Age_39_female_white/cdf_WF-246_white_female_43.jpg","right_image":"https://raw.githubusercontent.com/githubpsyche/images/main/characters/Age_32-38_male_black/cdf_BM-222_black_male_36.jpg","trial_type":"html-button-response","trial_index":31,"time_elapsed":476005,"internal_node_id":"0.0-31.0","choice":"left","winner":3,"loser":8},{"rt":651,"stimulus":"<div class=\"trial-container\"><div class=\"character-container\">\n            <img src=\"https://raw.githubusercontent.com/githubpsyche/images/main/characters/Age_24_male_latino/cdf_LM-242_latino_male_21.jpg\" alt=\"Character latino male\">\n            <div>\n                <p>Race: Latino</p>\n                <p>Sex: Male</p>\n                <p>Age: 21</p>\n            </div>\n        </div><div class=\"character-container\">\n            <img src=\"https://raw.githubusercontent.com/githubpsyche/images/main/characters/Age_25-31_female_east-asian/cdf_AF-230_east-asian_female_24.jpg\" alt=\"Character east-asian female\">\n            <div>\n                <p>Race: East Asian</p>\n                <p>Sex: Female</p>\n                <p>Age: 24</p>\n            </div>\n        </div></div>","response":0,"left_index":4,"right_index":5,"left_image":"https://raw.githubusercontent.com/githubpsyche/images/main/characters/Age_24_male_latino/cdf_LM-242_latino_male_21.jpg","right_image":"https://raw.githubusercontent.com/githubpsyche/images/main/characters/Age_25-31_female_east-asian/cdf_AF-230_east-asian_female_24.jpg","trial_type":"html-button-response","trial_index":32,"time_elapsed":476658,"internal_node_id":"0.0-32.0","choice":"left","winner":4,"loser":5},{"rt":567,"stimulus":"<div class=\"trial-container\"><div class=\"character-container\">\n            <img src=\"https://raw.githubusercontent.com/githubpsyche/images/main/characters/Age_24_female_white/cdf_WF-012_white_female_23.jpg\" alt=\"Character white female\">\n            <div>\n                <p>Race: White</p>\n                <p>Sex: Female</p>\n                <p>Age: 23</p>\n            </div>\n        </div><div class=\"character-container\">\n            <img src=\"https://raw.githubusercontent.com/githubpsyche/images/main/characters/Age_32-38_female_white/cdf_WF-226_white_female_32.jpg\" alt=\"Character white female\">\n            <div>\n                <p>Race: White</p>\n                <p>Sex: Female</p>\n                <p>Age: 32</p>\n            </div>\n        </div></div>","response":0,"left_index":1,"right_index":7,"left_image":"https://raw.githubusercontent.com/githubpsyche/images/main/characters/Age_24_female_white/cdf_WF-012_white_female_23.jpg","right_image":"https://raw.githubusercontent.com/githubpsyche/images/main/characters/Age_32-38_female_white/cdf_WF-226_white_female_32.jpg","trial_type":"html-button-response","trial_index":33,"time_elapsed":477226,"internal_node_id":"0.0-33.0","choice":"left","winner":1,"loser":7},{"rt":523,"stimulus":"<div class=\"trial-container\"><div class=\"character-container\">\n            <img src=\"https://raw.githubusercontent.com/githubpsyche/images/main/characters/Age_32-38_male_east-asian/cdf_AM-235_east-asian_male_35.jpg\" alt=\"Character east-asian male\">\n            <div>\n                <p>Race: East Asian</p>\n                <p>Sex: Male</p>\n                <p>Age: 35</p>\n            </div>\n        </div><div class=\"character-container\">\n            <img src=\"https://raw.githubusercontent.com/githubpsyche/images/main/characters/Age_24_male_latino/cdf_LM-242_latino_male_21.jpg\" alt=\"Character latino male\">\n            <div>\n                <p>Race: Latino</p>\n                <p>Sex: Male</p>\n                <p>Age: 21</p>\n            </div>\n        </div></div>","response":0,"left_index":0,"right_index":4,"left_image":"https://raw.githubusercontent.com/githubpsyche/images/main/characters/Age_32-38_male_east-asian/cdf_AM-235_east-asian_male_35.jpg","right_image":"https://raw.githubusercontent.com/githubpsyche/images/main/characters/Age_24_male_latino/cdf_LM-242_latino_male_21.jpg","trial_type":"html-button-response","trial_index":34,"time_elapsed":477751,"internal_node_id":"0.0-34.0","choice":"left","winner":0,"loser":4},{"rt":533,"stimulus":"<div class=\"trial-container\"><div class=\"character-container\">\n            <img src=\"https://raw.githubusercontent.com/githubpsyche/images/main/characters/Age_25-31_female_east-asian/cdf_AF-230_east-asian_female_24.jpg\" alt=\"Character east-asian female\">\n            <div>\n                <p>Race: East Asian</p>\n                <p>Sex: Female</p>\n                <p>Age: 24</p>\n            </div>\n        </div><div class=\"character-container\">\n            <img src=\"https://raw.githubusercontent.com/githubpsyche/images/main/characters/Age_25-31_female_black/cdf_BF-048_black_female_31.jpg\" alt=\"Character black female\">\n            <div>\n                <p>Race: Black</p>\n                <p>Sex: Female</p>\n                <p>Age: 31</p>\n            </div>\n        </div></div>","response":0,"left_index":5,"right_index":6,"left_image":"https://raw.githubusercontent.com/githubpsyche/images/main/characters/Age_25-31_female_east-asian/cdf_AF-230_east-asian_female_24.jpg","right_image":"https://raw.githubusercontent.com/githubpsyche/images/main/characters/Age_25-31_female_black/cdf_BF-048_black_female_31.jpg","trial_type":"html-button-response","trial_index":35,"time_elapsed":478286,"internal_node_id":"0.0-35.0","choice":"left","winner":5,"loser":6},{"rt":532,"stimulus":"<div class=\"trial-container\"><div class=\"character-container\">\n            <img src=\"https://raw.githubusercontent.com/githubpsyche/images/main/characters/Age_25-31_male_white/cdf_WM-021_white_male_29.jpg\" alt=\"Character white male\">\n            <div>\n                <p>Race: White</p>\n                <p>Sex: Male</p>\n                <p>Age: 29</p>\n            </div>\n        </div><div class=\"character-container\">\n            <img src=\"https://raw.githubusercontent.com/githubpsyche/images/main/characters/Age_24_male_latino/cdf_LM-242_latino_male_21.jpg\" alt=\"Character latino male\">\n            <div>\n                <p>Race: Latino</p>\n                <p>Sex: Male</p>\n                <p>Age: 21</p>\n            </div>\n        </div></div>","response":0,"left_index":2,"right_index":4,"left_image":"https://raw.githubusercontent.com/githubpsyche/images/main/characters/Age_25-31_male_white/cdf_WM-021_white_male_29.jpg","right_image":"https://raw.githubusercontent.com/githubpsyche/images/main/characters/Age_24_male_latino/cdf_LM-242_latino_male_21.jpg","trial_type":"html-button-response","trial_index":36,"time_elapsed":478819,"internal_node_id":"0.0-36.0","choice":"left","winner":2,"loser":4},{"rt":601,"stimulus":"<div class=\"trial-container\"><div class=\"character-container\">\n            <img src=\"https://raw.githubusercontent.com/githubpsyche/images/main/characters/Age_39_female_white/cdf_WF-246_white_female_43.jpg\" alt=\"Character white female\">\n            <div>\n                <p>Race: White</p>\n                <p>Sex: Female</p>\n                <p>Age: 43</p>\n            </div>\n        </div><div class=\"character-container\">\n            <img src=\"https://raw.githubusercontent.com/githubpsyche/images/main/characters/Age_25-31_female_east-asian/cdf_AF-230_east-asian_female_24.jpg\" alt=\"Character east-asian female\">\n            <div>\n                <p>Race: East Asian</p>\n                <p>Sex: Female</p>\n                <p>Age: 24</p>\n            </div>\n        </div></div>","response":0,"left_index":3,"right_index":5,"left_image":"https://raw.githubusercontent.com/githubpsyche/images/main/characters/Age_39_female_white/cdf_WF-246_white_female_43.jpg","right_image":"https://raw.githubusercontent.com/githubpsyche/images/main/characters/Age_25-31_female_east-asian/cdf_AF-230_east-asian_female_24.jpg","trial_type":"html-button-response","trial_index":37,"time_elapsed":479422,"internal_node_id":"0.0-37.0","choice":"left","winner":3,"loser":5},{"rt":561,"stimulus":"<div class=\"trial-container\"><div class=\"character-container\">\n            <img src=\"https://raw.githubusercontent.com/githubpsyche/images/main/characters/Age_25-31_male_white/cdf_WM-021_white_male_29.jpg\" alt=\"Character white male\">\n            <div>\n                <p>Race: White</p>\n                <p>Sex: Male</p>\n                <p>Age: 29</p>\n            </div>\n        </div><div class=\"character-container\">\n            <img src=\"https://raw.githubusercontent.com/githubpsyche/images/main/characters/Age_25-31_female_black/cdf_BF-048_black_female_31.jpg\" alt=\"Character black female\">\n            <div>\n                <p>Race: Black</p>\n                <p>Sex: Female</p>\n                <p>Age: 31</p>\n            </div>\n        </div></div>","response":0,"left_index":2,"right_index":6,"left_image":"https://raw.githubusercontent.com/githubpsyche/images/main/characters/Age_25-31_male_white/cdf_WM-021_white_male_29.jpg","right_image":"https://raw.githubusercontent.com/githubpsyche/images/main/characters/Age_25-31_female_black/cdf_BF-048_black_female_31.jpg","trial_type":"html-button-response","trial_index":38,"time_elapsed":479985,"internal_node_id":"0.0-38.0","choice":"left","winner":2,"loser":6},{"rt":532,"stimulus":"<div class=\"trial-container\"><div class=\"character-container\">\n            <img src=\"https://raw.githubusercontent.com/githubpsyche/images/main/characters/Age_25-31_female_east-asian/cdf_AF-230_east-asian_female_24.jpg\" alt=\"Character east-asian female\">\n            <div>\n                <p>Race: East Asian</p>\n                <p>Sex: Female</p>\n                <p>Age: 24</p>\n            </div>\n        </div><div class=\"character-container\">\n            <img src=\"https://raw.githubusercontent.com/githubpsyche/images/main/characters/Age_32-38_male_black/cdf_BM-222_black_male_36.jpg\" alt=\"Character black male\">\n            <div>\n                <p>Race: Black</p>\n                <p>Sex: Male</p>\n                <p>Age: 36</p>\n            </div>\n        </div></div>","response":0,"left_index":5,"right_index":8,"left_image":"https://raw.githubusercontent.com/githubpsyche/images/main/characters/Age_25-31_female_east-asian/cdf_AF-230_east-asian_female_24.jpg","right_image":"https://raw.githubusercontent.com/githubpsyche/images/main/characters/Age_32-38_male_black/cdf_BM-222_black_male_36.jpg","trial_type":"html-button-response","trial_index":39,"time_elapsed":480518,"internal_node_id":"0.0-39.0","choice":"left","winner":5,"loser":8},{"rt":536,"stimulus":"<div class=\"trial-container\"><div class=\"character-container\">\n            <img src=\"https://raw.githubusercontent.com/githubpsyche/images/main/characters/Age_24_female_white/cdf_WF-012_white_female_23.jpg\" alt=\"Character white female\">\n            <div>\n                <p>Race: White</p>\n                <p>Sex: Female</p>\n                <p>Age: 23</p>\n            </div>\n        </div><div class=\"character-container\">\n            <img src=\"https://raw.githubusercontent.com/githubpsyche/images/main/characters/Age_25-31_female_black/cdf_BF-048_black_female_31.jpg\" alt=\"Character black female\">\n            <div>\n                <p>Race: Black</p>\n                <p>Sex: Female</p>\n                <p>Age: 31</p>\n            </div>\n        </div></div>","response":0,"left_index":1,"right_index":6,"left_image":"https://raw.githubusercontent.com/githubpsyche/images/main/characters/Age_24_female_white/cdf_WF-012_white_female_23.jpg","right_image":"https://raw.githubusercontent.com/githubpsyche/images/main/characters/Age_25-31_female_black/cdf_BF-048_black_female_31.jpg","trial_type":"html-button-response","trial_index":40,"time_elapsed":481056,"internal_node_id":"0.0-40.0","choice":"left","winner":1,"loser":6},{"rt":669,"stimulus":"<div class=\"trial-container\"><div class=\"character-container\">\n            <img src=\"https://raw.githubusercontent.com/githubpsyche/images/main/characters/Age_39_female_white/cdf_WF-246_white_female_43.jpg\" alt=\"Character white female\">\n            <div>\n                <p>Race: White</p>\n                <p>Sex: Female</p>\n                <p>Age: 43</p>\n            </div>\n        </div><div class=\"character-container\">\n            <img src=\"https://raw.githubusercontent.com/githubpsyche/images/main/characters/Age_32-38_female_white/cdf_WF-226_white_female_32.jpg\" alt=\"Character white female\">\n            <div>\n                <p>Race: White</p>\n                <p>Sex: Female</p>\n                <p>Age: 32</p>\n            </div>\n        </div></div>","response":0,"left_index":3,"right_index":7,"left_image":"https://raw.githubusercontent.com/githubpsyche/images/main/characters/Age_39_female_white/cdf_WF-246_white_female_43.jpg","right_image":"https://raw.githubusercontent.com/githubpsyche/images/main/characters/Age_32-38_female_white/cdf_WF-226_white_female_32.jpg","trial_type":"html-button-response","trial_index":41,"time_elapsed":481726,"internal_node_id":"0.0-41.0","choice":"left","winner":3,"loser":7},{"rt":541,"stimulus":"<div class=\"trial-container\"><div class=\"character-container\">\n            <img src=\"https://raw.githubusercontent.com/githubpsyche/images/main/characters/Age_25-31_female_black/cdf_BF-048_black_female_31.jpg\" alt=\"Character black female\">\n            <div>\n                <p>Race: Black</p>\n                <p>Sex: Female</p>\n                <p>Age: 31</p>\n            </div>\n        </div><div class=\"character-container\">\n            <img src=\"https://raw.githubusercontent.com/githubpsyche/images/main/characters/Age_32-38_male_black/cdf_BM-222_black_male_36.jpg\" alt=\"Character black male\">\n            <div>\n                <p>Race: Black</p>\n                <p>Sex: Male</p>\n                <p>Age: 36</p>\n            </div>\n        </div></div>","response":0,"left_index":6,"right_index":8,"left_image":"https://raw.githubusercontent.com/githubpsyche/images/main/characters/Age_25-31_female_black/cdf_BF-048_black_female_31.jpg","right_image":"https://raw.githubusercontent.com/githubpsyche/images/main/characters/Age_32-38_male_black/cdf_BM-222_black_male_36.jpg","trial_type":"html-button-response","trial_index":42,"time_elapsed":482269,"internal_node_id":"0.0-42.0","choice":"left","winner":6,"loser":8},{"rt":709,"stimulus":"<div class=\"trial-container\"><div class=\"character-container\">\n            <img src=\"https://raw.githubusercontent.com/githubpsyche/images/main/characters/Age_32-38_male_east-asian/cdf_AM-235_east-asian_male_35.jpg\" alt=\"Character east-asian male\">\n            <div>\n                <p>Race: East Asian</p>\n                <p>Sex: Male</p>\n                <p>Age: 35</p>\n            </div>\n        </div><div class=\"character-container\">\n            <img src=\"https://raw.githubusercontent.com/githubpsyche/images/main/characters/Age_39_female_white/cdf_WF-246_white_female_43.jpg\" alt=\"Character white female\">\n            <div>\n                <p>Race: White</p>\n                <p>Sex: Female</p>\n                <p>Age: 43</p>\n            </div>\n        </div></div>","response":0,"left_index":0,"right_index":3,"left_image":"https://raw.githubusercontent.com/githubpsyche/images/main/characters/Age_32-38_male_east-asian/cdf_AM-235_east-asian_male_35.jpg","right_image":"https://raw.githubusercontent.com/githubpsyche/images/main/characters/Age_39_female_white/cdf_WF-246_white_female_43.jpg","trial_type":"html-button-response","trial_index":43,"time_elapsed":482981,"internal_node_id":"0.0-43.0","choice":"left","winner":0,"loser":3},{"rt":519,"stimulus":"<div class=\"trial-container\"><div class=\"character-container\">\n            <img src=\"https://raw.githubusercontent.com/githubpsyche/images/main/characters/Age_24_female_white/cdf_WF-012_white_female_23.jpg\" alt=\"Character white female\">\n            <div>\n                <p>Race: White</p>\n                <p>Sex: Female</p>\n                <p>Age: 23</p>\n            </div>\n        </div><div class=\"character-container\">\n            <img src=\"https://raw.githubusercontent.com/githubpsyche/images/main/characters/Age_32-38_male_black/cdf_BM-222_black_male_36.jpg\" alt=\"Character black male\">\n            <div>\n                <p>Race: Black</p>\n                <p>Sex: Male</p>\n                <p>Age: 36</p>\n            </div>\n        </div></div>","response":0,"left_index":1,"right_index":8,"left_image":"https://raw.githubusercontent.com/githubpsyche/images/main/characters/Age_24_female_white/cdf_WF-012_white_female_23.jpg","right_image":"https://raw.githubusercontent.com/githubpsyche/images/main/characters/Age_32-38_male_black/cdf_BM-222_black_male_36.jpg","trial_type":"html-button-response","trial_index":44,"time_elapsed":483501,"internal_node_id":"0.0-44.0","choice":"left","winner":1,"loser":8},{"rt":574,"stimulus":"<div class=\"trial-container\"><div class=\"character-container\">\n            <img src=\"https://raw.githubusercontent.com/githubpsyche/images/main/characters/Age_32-38_male_east-asian/cdf_AM-235_east-asian_male_35.jpg\" alt=\"Character east-asian male\">\n            <div>\n                <p>Race: East Asian</p>\n                <p>Sex: Male</p>\n                <p>Age: 35</p>\n            </div>\n        </div><div class=\"character-container\">\n            <img src=\"https://raw.githubusercontent.com/githubpsyche/images/main/characters/Age_25-31_male_white/cdf_WM-021_white_male_29.jpg\" alt=\"Character white male\">\n            <div>\n                <p>Race: White</p>\n                <p>Sex: Male</p>\n                <p>Age: 29</p>\n            </div>\n        </div></div>","response":0,"left_index":0,"right_index":2,"left_image":"https://raw.githubusercontent.com/githubpsyche/images/main/characters/Age_32-38_male_east-asian/cdf_AM-235_east-asian_male_35.jpg","right_image":"https://raw.githubusercontent.com/githubpsyche/images/main/characters/Age_25-31_male_white/cdf_WM-021_white_male_29.jpg","trial_type":"html-button-response","trial_index":45,"time_elapsed":484077,"internal_node_id":"0.0-45.0","choice":"left","winner":0,"loser":2},{"rt":719,"stimulus":"<div class=\"trial-container\"><div class=\"character-container\">\n            <img src=\"https://raw.githubusercontent.com/githubpsyche/images/main/characters/Age_25-31_male_white/cdf_WM-021_white_male_29.jpg\" alt=\"Character white male\">\n            <div>\n                <p>Race: White</p>\n                <p>Sex: Male</p>\n                <p>Age: 29</p>\n            </div>\n        </div><div class=\"character-container\">\n            <img src=\"https://raw.githubusercontent.com/githubpsyche/images/main/characters/Age_32-38_female_white/cdf_WF-226_white_female_32.jpg\" alt=\"Character white female\">\n            <div>\n                <p>Race: White</p>\n                <p>Sex: Female</p>\n                <p>Age: 32</p>\n            </div>\n        </div></div>","response":0,"left_index":2,"right_index":7,"left_image":"https://raw.githubusercontent.com/githubpsyche/images/main/characters/Age_25-31_male_white/cdf_WM-021_white_male_29.jpg","right_image":"https://raw.githubusercontent.com/githubpsyche/images/main/characters/Age_32-38_female_white/cdf_WF-226_white_female_32.jpg","trial_type":"html-button-response","trial_index":46,"time_elapsed":484798,"internal_node_id":"0.0-46.0","choice":"left","winner":2,"loser":7},{"rt":5116,"response":{"deception":"yes"},"trial_type":"survey-html-form","trial_index":47,"time_elapsed":489917,"internal_node_id":"0.0-47.0"},{"view_history":[{"page_index":0,"viewing_time":1831}],"rt":1831,"trial_type":"instructions","trial_index":48,"time_elapsed":491749,"internal_node_id":"0.0-48.0"}]
