[{"view_history":[{"page_index":0,"viewing_time":2168}],"rt":2168,"condition":1,"ordering":0,"trial_type":"instructions","trial_index":0,"time_elapsed":2170,"internal_node_id":"0.0-0.0"},{"view_history":[{"page_index":0,"viewing_time":1256}],"rt":1257,"trial_type":"instructions","trial_index":1,"time_elapsed":3428,"internal_node_id":"0.0-1.0"},{"rt":21492,"response":{"race":"White","gender":"man","age":"33","college":"yes"},"trial_type":"survey-html-form","trial_index":2,"time_elapsed":24922,"internal_node_id":"0.0-2.0"},{"rt":9577,"stimulus":"<h2>Rating</h2><p>On a scale from 1–10, how typically successful are you in competitive environments?</p>","slider_start":5,"response":6,"trial_type":"html-slider-response","trial_index":3,"time_elapsed":34503,"internal_node_id":"0.0-3.0"},{"view_history":[{"page_index":0,"viewing_time":1345},{"page_index":1,"viewing_time":964}],"rt":2310,"condition":1,"trial_type":"instructions","trial_index":4,"time_elapsed":36813,"internal_node_id":"0.0-4.0"},{"view_history":[{"page_index":0,"viewing_time":2909}],"rt":2909,"condition":1,"trial_type":"instructions","trial_index":5,"time_elapsed":39723,"internal_node_id":"0.0-5.0"},{"rt":null,"stimulus":"\n        <p style=\"font-size: 20px;\">One moment. We are sorting you into a lobby.</p>\n        <img src=\"experiments/sortablerank/loading.gif\" style=\"width: 100px; height: 100px;\">","response":null,"trial_type":"html-keyboard-response","trial_index":6,"time_elapsed":42727,"internal_node_id":"0.0-6.0"},{"rt":6183,"stimulus":"<div class=\"trial-container\"><div class=\"character-container\">\n            <img src=\"https://raw.githubusercontent.com/githubpsyche/images/main/characters/Age_32-38_female_white/cdf_WF-023_white_female_33.jpg\" alt=\"Character white female\">\n            <div>\n                <p>Race: White</p>\n                <p>Sex: Female</p>\n                <p>Age: 33</p>\n            </div>\n        </div><div class=\"character-container\">\n            <img src=\"https://raw.githubusercontent.com/githubpsyche/images/main/characters/Age_25-31_male_south-asian/cdf_IM-627_south-asian_male_28.jpg\" alt=\"Character south-asian male\">\n            <div>\n                <p>Race: South Asian</p>\n                <p>Sex: Male</p>\n                <p>Age: 28</p>\n            </div>\n        </div></div>","response":0,"left_index":3,"right_index":4,"left_image":"https://raw.githubusercontent.com/githubpsyche/images/main/characters/Age_32-38_female_white/cdf_WF-023_white_female_33.jpg","right_image":"https://raw.githubusercontent.com/githubpsyche/images/main/characters/Age_25-31_male_south-asian/cdf_IM-627_south-asian_male_28.jpg","trial_type":"html-button-response","trial_index":7,"time_elapsed":48912,"internal_node_id":"0.0-7.0","choice":"left","winner":3,"loser":4},{"rt":4016,"stimulus":"<div class=\"trial-container\"><div class=\"character-container\">\n            <img src=\"https://raw.githubusercontent.com/githubpsyche/images/main/characters/Age_24_female_south-asian/cdf_IF-620_south-asian_female_21.jpg\" alt=\"Character south-asian female\">\n            <div>\n                <p>Race: South Asian</p>\n                <p>Sex: Female</p>\n                <p>Age: 21</p>\n            </div>\n        </div><div class=\"character-container\">\n            <img src=\"https://raw.githubusercontent.com/githubpsyche/images/main/characters/Age_32-38_male_latino/cdf_LM-228_latino_male_36.jpg\" alt=\"Character latino male\">\n            <div>\n                <p>Race: Latino</p>\n                <p>Sex: Male</p>\n                <p>Age: 36</p>\n            </div>\n        </div></div>","response":0,"left_index":6,"right_index":8,"left_image":"https://raw.githubusercontent.com/githubpsyche/images/main/characters/Age_24_female_south-asian/cdf_IF-620_south-asian_female_21.jpg","right_image":"https://raw.githubusercontent.com/githubpsyche/images/main/characters/Age_32-38_male_latino/cdf_LM-228_latino_male_36.jpg","trial_type":"html-button-response","trial_index":8,"time_elapsed":52930,"internal_node_id":"0.0-8.0","choice":"left","winner":6,"loser":8},{"rt":4621,"stimulus":"<div class=\"trial-container\"><div class=\"character-container\">\n            <img src=\"https://raw.githubusercontent.com/githubpsyche/images/main/characters/Age_39_female_latino/cdf_LF-238_latino_female_42.jpg\" alt=\"Character latino female\">\n            <div>\n                <p>Race: Latino</p>\n                <p>Sex: Female</p>\n                <p>Age: 42</p>\n            </div>\n        </div><div class=\"character-container\">\n            <img src=\"https://raw.githubusercontent.com/githubpsyche/images/main/characters/Age_32-38_female_white/cdf_WF-023_white_female_33.jpg\" alt=\"Character white female\">\n            <div>\n                <p>Race: White</p>\n                <p>Sex: Female</p>\n                <p>Age: 33</p>\n            </div>\n        </div></div>","response":1,"left_index":0,"right_index":3,"left_image":"https://raw.githubusercontent.com/githubpsyche/images/main/characters/Age_39_female_latino/cdf_LF-238_latino_female_42.jpg","right_image":"https://raw.githubusercontent.com/githubpsyche/images/main/characters/Age_32-38_female_white/cdf_WF-023_white_female_33.jpg","trial_type":"html-button-response","trial_index":9,"time_elapsed":57553,"internal_node_id":"0.0-9.0","choice":"right","winner":3,"loser":0},{"rt":2560,"stimulus":"<div class=\"trial-container\"><div class=\"character-container\">\n            <img src=\"https://raw.githubusercontent.com/githubpsyche/images/main/characters/Age_25-31_male_south-asian/cdf_IM-627_south-asian_male_28.jpg\" alt=\"Character south-asian male\">\n            <div>\n                <p>Race: South Asian</p>\n                <p>Sex: Male</p>\n                <p>Age: 28</p>\n            </div>\n        </div><div class=\"character-container\">\n            <img src=\"https://raw.githubusercontent.com/githubpsyche/images/main/characters/Age_32-38_male_latino/cdf_LM-228_latino_male_36.jpg\" alt=\"Character latino male\">\n            <div>\n                <p>Race: Latino</p>\n                <p>Sex: Male</p>\n                <p>Age: 36</p>\n            </div>\n        </div></div>","response":0,"left_index":4,"right_index":8,"left_image":"https://raw.githubusercontent.com/githubpsyche/images/main/characters/Age_25-31_male_south-asian/cdf_IM-627_south-asian_male_28.jpg","right_image":"https://raw.githubusercontent.com/githubpsyche/images/main/characters/Age_32-38_male_latino/cdf_LM-228_latino_male_36.jpg","trial_type":"html-button-response","trial_index":10,"time_elapsed":60115,"internal_node_id":"0.0-10.0","choice":"left","winner":4,"loser":8},{"rt":2464,"stimulus":"<div class=\"trial-container\"><div class=\"character-container\">\n            <img src=\"https://raw.githubusercontent.com/githubpsyche/images/main/characters/Age_39_female_latino/cdf_LF-238_latino_female_42.jpg\" alt=\"Character latino female\">\n            <div>\n                <p>Race: Latino</p>\n                <p>Sex: Female</p>\n                <p>Age: 42</p>\n            </div>\n        </div><div class=\"character-container\">\n            <img src=\"https://raw.githubusercontent.com/githubpsyche/images/main/characters/Age_24_female_south-asian/cdf_IF-620_south-asian_female_21.jpg\" alt=\"Character south-asian female\">\n            <div>\n                <p>Race: South Asian</p>\n                <p>Sex: Female</p>\n                <p>Age: 21</p>\n            </div>\n        </div></div>","response":1,"left_index":0,"right_index":6,"left_image":"https://raw.githubusercontent.com/githubpsyche/images/main/characters/Age_39_female_latino/cdf_LF-238_latino_female_42.jpg","right_image":"https://raw.githubusercontent.com/githubpsyche/images/main/characters/Age_24_female_south-asian/cdf_IF-620_south-asian_female_21.jpg","trial_type":"html-button-response","trial_index":11,"time_elapsed":62580,"internal_node_id":"0.0-11.0","choice":"right","winner":6,"loser":0},{"rt":2092,"stimulus":"<div class=\"trial-container\"><div class=\"character-container\">\n            <img src=\"https://raw.githubusercontent.com/githubpsyche/images/main/characters/Age_32-38_male_east-asian/cdf_AM-240_east-asian_male_34.jpg\" alt=\"Character east-asian male\">\n            <div>\n                <p>Race: East Asian</p>\n                <p>Sex: Male</p>\n                <p>Age: 34</p>\n            </div>\n        </div><div class=\"character-container\">\n            <img src=\"https://raw.githubusercontent.com/githubpsyche/images/main/characters/Age_25-31_female_south-asian/cdf_IF-668_south-asian_female_28.jpg\" alt=\"Character south-asian female\">\n            <div>\n                <p>Race: South Asian</p>\n                <p>Sex: Female</p>\n                <p>Age: 28</p>\n            </div>\n        </div></div>","response":1,"left_index":1,"right_index":7,"left_image":"https://raw.githubusercontent.com/githubpsyche/images/main/characters/Age_32-38_male_east-asian/cdf_AM-240_east-asian_male_34.jpg","right_image":"https://raw.githubusercontent.com/githubpsyche/images/main/characters/Age_25-31_female_south-asian/cdf_IF-668_south-asian_female_28.jpg","trial_type":"html-button-response","trial_index":12,"time_elapsed":64674,"internal_node_id":"0.0-12.0","choice":"right","winner":7,"loser":1},{"rt":1730,"stimulus":"<div class=\"trial-container\"><div class=\"character-container\">\n            <img src=\"https://raw.githubusercontent.com/githubpsyche/images/main/characters/Age_39_male_latino/cdf_LM-203_latino_male_44.jpg\" alt=\"Character latino male\">\n            <div>\n                <p>Race: Latino</p>\n                <p>Sex: Male</p>\n                <p>Age: 44</p>\n            </div>\n        </div><div class=\"character-container\">\n            <img src=\"https://raw.githubusercontent.com/githubpsyche/images/main/characters/Age_24_female_south-asian/cdf_IF-620_south-asian_female_21.jpg\" alt=\"Character south-asian female\">\n            <div>\n                <p>Race: South Asian</p>\n                <p>Sex: Female</p>\n                <p>Age: 21</p>\n            </div>\n        </div></div>","response":1,"left_index":5,"right_index":6,"left_image":"https://raw.githubusercontent.com/githubpsyche/images/main/characters/Age_39_male_latino/cdf_LM-203_latino_male_44.jpg","right_image":"https://raw.githubusercontent.com/githubpsyche/images/main/characters/Age_24_female_south-asian/cdf_IF-620_south-asian_female_21.jpg","trial_type":"html-button-response","trial_index":13,"time_elapsed":66405,"internal_node_id":"0.0-13.0","choice":"right","winner":6,"loser":5},{"rt":2907,"stimulus":"<div class=\"trial-container\"><div class=\"character-container\">\n            <img src=\"https://raw.githubusercontent.com/githubpsyche/images/main/characters/Age_32-38_male_east-asian/cdf_AM-240_east-asian_male_34.jpg\" alt=\"Character east-asian male\">\n            <div>\n                <p>Race: East Asian</p>\n                <p>Sex: Male</p>\n                <p>Age: 34</p>\n            </div>\n        </div><div class=\"character-container\">\n            <img src=\"https://raw.githubusercontent.com/githubpsyche/images/main/characters/Age_32-38_male_latino/cdf_LM-228_latino_male_36.jpg\" alt=\"Character latino male\">\n            <div>\n                <p>Race: Latino</p>\n                <p>Sex: Male</p>\n                <p>Age: 36</p>\n            </div>\n        </div></div>","response":0,"left_index":1,"right_index":8,"left_image":"https://raw.githubusercontent.com/githubpsyche/images/main/characters/Age_32-38_male_east-asian/cdf_AM-240_east-asian_male_34.jpg","right_image":"https://raw.githubusercontent.com/githubpsyche/images/main/characters/Age_32-38_male_latino/cdf_LM-228_latino_male_36.jpg","trial_type":"html-button-response","trial_index":14,"time_elapsed":69314,"internal_node_id":"0.0-14.0","choice":"left","winner":1,"loser":8},{"rt":1999,"stimulus":"<div class=\"trial-container\"><div class=\"character-container\">\n            <img src=\"https://raw.githubusercontent.com/githubpsyche/images/main/characters/Age_24_female_south-asian/cdf_IF-620_south-asian_female_21.jpg\" alt=\"Character south-asian female\">\n            <div>\n                <p>Race: South Asian</p>\n                <p>Sex: Female</p>\n                <p>Age: 21</p>\n            </div>\n        </div><div class=\"character-container\">\n            <img src=\"https://raw.githubusercontent.com/githubpsyche/images/main/characters/Age_25-31_female_south-asian/cdf_IF-668_south-asian_female_28.jpg\" alt=\"Character south-asian female\">\n            <div>\n                <p>Race: South Asian</p>\n                <p>Sex: Female</p>\n                <p>Age: 28</p>\n            </div>\n        </div></div>","response":0,"left_index":6,"right_index":7,"left_image":"https://raw.githubusercontent.com/githubpsyche/images/main/characters/Age_24_female_south-asian/cdf_IF-620_south-asian_female_21.jpg","right_image":"https://raw.githubusercontent.com/githubpsyche/images/main/characters/Age_25-31_female_south-asian/cdf_IF-668_south-asian_female_28.jpg","trial_type":"html-button-response","trial_index":15,"time_elapsed":71315,"internal_node_id":"0.0-15.0","choice":"left","winner":6,"loser":7},{"rt":4990,"stimulus":"<div class=\"trial-container\"><div class=\"character-container\">\n            <img src=\"https://raw.githubusercontent.com/githubpsyche/images/main/characters/Age_25-31_female_white/cdf_WF-215_white_female_31.jpg\" alt=\"Character white female\">\n            <div>\n                <p>Race: White</p>\n                <p>Sex: Female</p>\n                <p>Age: 31</p>\n            </div>\n        </div><div class=\"character-container\">\n            <img src=\"https://raw.githubusercontent.com/githubpsyche/images/main/characters/Age_39_male_latino/cdf_LM-203_latino_male_44.jpg\" alt=\"Character latino male\">\n            <div>\n                <p>Race: Latino</p>\n                <p>Sex: Male</p>\n                <p>Age: 44</p>\n            </div>\n        </div></div>","response":0,"left_index":2,"right_index":5,"left_image":"https://raw.githubusercontent.com/githubpsyche/images/main/characters/Age_25-31_female_white/cdf_WF-215_white_female_31.jpg","right_image":"https://raw.githubusercontent.com/githubpsyche/images/main/characters/Age_39_male_latino/cdf_LM-203_latino_male_44.jpg","trial_type":"html-button-response","trial_index":16,"time_elapsed":76306,"internal_node_id":"0.0-16.0","choice":"left","winner":2,"loser":5},{"rt":2122,"stimulus":"<div class=\"trial-container\"><div class=\"character-container\">\n            <img src=\"https://raw.githubusercontent.com/githubpsyche/images/main/characters/Age_25-31_male_south-asian/cdf_IM-627_south-asian_male_28.jpg\" alt=\"Character south-asian male\">\n            <div>\n                <p>Race: South Asian</p>\n                <p>Sex: Male</p>\n                <p>Age: 28</p>\n            </div>\n        </div><div class=\"character-container\">\n            <img src=\"https://raw.githubusercontent.com/githubpsyche/images/main/characters/Age_25-31_female_south-asian/cdf_IF-668_south-asian_female_28.jpg\" alt=\"Character south-asian female\">\n            <div>\n                <p>Race: South Asian</p>\n                <p>Sex: Female</p>\n                <p>Age: 28</p>\n            </div>\n        </div></div>","response":0,"left_index":4,"right_index":7,"left_image":"https://raw.githubusercontent.com/githubpsyche/images/main/characters/Age_25-31_male_south-asian/cdf_IM-627_south-asian_male_28.jpg","right_image":"https://raw.githubusercontent.com/githubpsyche/images/main/characters/Age_25-31_female_south-asian/cdf_IF-668_south-asian_female_28.jpg","trial_type":"html-button-response","trial_index":17,"time_elapsed":78429,"internal_node_id":"0.0-17.0","choice":"left","winner":4,"loser":7},{"rt":2202,"stimulus":"<div class=\"trial-container\"><div class=\"character-container\">\n            <img src=\"https://raw.githubusercontent.com/githubpsyche/images/main/characters/Age_25-31_female_white/cdf_WF-215_white_female_31.jpg\" alt=\"Character white female\">\n            <div>\n                <p>Race: White</p>\n                <p>Sex: Female</p>\n                <p>Age: 31</p>\n            </div>\n        </div><div class=\"character-container\">\n            <img src=\"https://raw.githubusercontent.com/githubpsyche/images/main/characters/Age_32-38_female_white/cdf_WF-023_white_female_33.jpg\" alt=\"Character white female\">\n            <div>\n                <p>Race: White</p>\n                <p>Sex: Female</p>\n                <p>Age: 33</p>\n            </div>\n        </div></div>","response":0,"left_index":2,"right_index":3,"left_image":"https://raw.githubusercontent.com/githubpsyche/images/main/characters/Age_25-31_female_white/cdf_WF-215_white_female_31.jpg","right_image":"https://raw.githubusercontent.com/githubpsyche/images/main/characters/Age_32-38_female_white/cdf_WF-023_white_female_33.jpg","trial_type":"html-button-response","trial_index":18,"time_elapsed":80633,"internal_node_id":"0.0-18.0","choice":"left","winner":2,"loser":3},{"rt":1284,"stimulus":"<div class=\"trial-container\"><div class=\"character-container\">\n            <img src=\"https://raw.githubusercontent.com/githubpsyche/images/main/characters/Age_25-31_female_south-asian/cdf_IF-668_south-asian_female_28.jpg\" alt=\"Character south-asian female\">\n            <div>\n                <p>Race: South Asian</p>\n                <p>Sex: Female</p>\n                <p>Age: 28</p>\n            </div>\n        </div><div class=\"character-container\">\n            <img src=\"https://raw.githubusercontent.com/githubpsyche/images/main/characters/Age_32-38_male_latino/cdf_LM-228_latino_male_36.jpg\" alt=\"Character latino male\">\n            <div>\n                <p>Race: Latino</p>\n                <p>Sex: Male</p>\n                <p>Age: 36</p>\n            </div>\n        </div></div>","response":0,"left_index":7,"right_index":8,"left_image":"https://raw.githubusercontent.com/githubpsyche/images/main/characters/Age_25-31_female_south-asian/cdf_IF-668_south-asian_female_28.jpg","right_image":"https://raw.githubusercontent.com/githubpsyche/images/main/characters/Age_32-38_male_latino/cdf_LM-228_latino_male_36.jpg","trial_type":"html-button-response","trial_index":19,"time_elapsed":81918,"internal_node_id":"0.0-19.0","choice":"left","winner":7,"loser":8},{"rt":2336,"stimulus":"<div class=\"trial-container\"><div class=\"character-container\">\n            <img src=\"https://raw.githubusercontent.com/githubpsyche/images/main/characters/Age_25-31_female_white/cdf_WF-215_white_female_31.jpg\" alt=\"Character white female\">\n            <div>\n                <p>Race: White</p>\n                <p>Sex: Female</p>\n                <p>Age: 31</p>\n            </div>\n        </div><div class=\"character-container\">\n            <img src=\"https://raw.githubusercontent.com/githubpsyche/images/main/characters/Age_25-31_male_south-asian/cdf_IM-627_south-asian_male_28.jpg\" alt=\"Character south-asian male\">\n            <div>\n                <p>Race: South Asian</p>\n                <p>Sex: Male</p>\n                <p>Age: 28</p>\n            </div>\n        </div></div>","response":0,"left_index":2,"right_index":4,"left_image":"https://raw.githubusercontent.com/githubpsyche/images/main/characters/Age_25-31_female_white/cdf_WF-215_white_female_31.jpg","right_image":"https://raw.githubusercontent.com/githubpsyche/images/main/characters/Age_25-31_male_south-asian/cdf_IM-627_south-asian_male_28.jpg","trial_type":"html-button-response","trial_index":20,"time_elapsed":84255,"internal_node_id":"0.0-20.0","choice":"left","winner":2,"loser":4},{"rt":1259,"stimulus":"<div class=\"trial-container\"><div class=\"character-container\">\n            <img src=\"https://raw.githubusercontent.com/githubpsyche/images/main/characters/Age_32-38_female_white/cdf_WF-023_white_female_33.jpg\" alt=\"Character white female\">\n            <div>\n                <p>Race: White</p>\n                <p>Sex: Female</p>\n                <p>Age: 33</p>\n            </div>\n        </div><div class=\"character-container\">\n            <img src=\"https://raw.githubusercontent.com/githubpsyche/images/main/characters/Age_32-38_male_latino/cdf_LM-228_latino_male_36.jpg\" alt=\"Character latino male\">\n            <div>\n                <p>Race: Latino</p>\n                <p>Sex: Male</p>\n                <p>Age: 36</p>\n            </div>\n        </div></div>","response":0,"left_index":3,"right_index":8,"left_image":"https://raw.githubusercontent.com/githubpsyche/images/main/characters/Age_32-38_female_white/cdf_WF-023_white_female_33.jpg","right_image":"https://raw.githubusercontent.com/githubpsyche/images/main/characters/Age_32-38_male_latino/cdf_LM-228_latino_male_36.jpg","trial_type":"html-button-response","trial_index":21,"time_elapsed":85516,"internal_node_id":"0.0-21.0","choice":"left","winner":3,"loser":8},{"rt":1747,"stimulus":"<div class=\"trial-container\"><div class=\"character-container\">\n            <img src=\"https://raw.githubusercontent.com/githubpsyche/images/main/characters/Age_32-38_male_east-asian/cdf_AM-240_east-asian_male_34.jpg\" alt=\"Character east-asian male\">\n            <div>\n                <p>Race: East Asian</p>\n                <p>Sex: Male</p>\n                <p>Age: 34</p>\n            </div>\n        </div><div class=\"character-container\">\n            <img src=\"https://raw.githubusercontent.com/githubpsyche/images/main/characters/Age_39_male_latino/cdf_LM-203_latino_male_44.jpg\" alt=\"Character latino male\">\n            <div>\n                <p>Race: Latino</p>\n                <p>Sex: Male</p>\n                <p>Age: 44</p>\n            </div>\n        </div></div>","response":0,"left_index":1,"right_index":5,"left_image":"https://raw.githubusercontent.com/githubpsyche/images/main/characters/Age_32-38_male_east-asian/cdf_AM-240_east-asian_male_34.jpg","right_image":"https://raw.githubusercontent.com/githubpsyche/images/main/characters/Age_39_male_latino/cdf_LM-203_latino_male_44.jpg","trial_type":"html-button-response","trial_index":22,"time_elapsed":87264,"internal_node_id":"0.0-22.0","choice":"left","winner":1,"loser":5},{"rt":1311,"stimulus":"<div class=\"trial-container\"><div class=\"character-container\">\n            <img src=\"https://raw.githubusercontent.com/githubpsyche/images/main/characters/Age_25-31_female_white/cdf_WF-215_white_female_31.jpg\" alt=\"Character white female\">\n            <div>\n                <p>Race: White</p>\n                <p>Sex: Female</p>\n                <p>Age: 31</p>\n            </div>\n        </div><div class=\"character-container\">\n            <img src=\"https://raw.githubusercontent.com/githubpsyche/images/main/characters/Age_32-38_male_latino/cdf_LM-228_latino_male_36.jpg\" alt=\"Character latino male\">\n            <div>\n                <p>Race: Latino</p>\n                <p>Sex: Male</p>\n                <p>Age: 36</p>\n            </div>\n        </div></div>","response":0,"left_index":2,"right_index":8,"left_image":"https://raw.githubusercontent.com/githubpsyche/images/main/characters/Age_25-31_female_white/cdf_WF-215_white_female_31.jpg","right_image":"https://raw.githubusercontent.com/githubpsyche/images/main/characters/Age_32-38_male_latino/cdf_LM-228_latino_male_36.jpg","trial_type":"html-button-response","trial_index":23,"time_elapsed":88577,"internal_node_id":"0.0-23.0","choice":"left","winner":2,"loser":8},{"rt":1659,"stimulus":"<div class=\"trial-container\"><div class=\"character-container\">\n            <img src=\"https://raw.githubusercontent.com/githubpsyche/images/main/characters/Age_25-31_male_south-asian/cdf_IM-627_south-asian_male_28.jpg\" alt=\"Character south-asian male\">\n            <div>\n                <p>Race: South Asian</p>\n                <p>Sex: Male</p>\n                <p>Age: 28</p>\n            </div>\n        </div><div class=\"character-container\">\n            <img src=\"https://raw.githubusercontent.com/githubpsyche/images/main/characters/Age_24_female_south-asian/cdf_IF-620_south-asian_female_21.jpg\" alt=\"Character south-asian female\">\n            <div>\n                <p>Race: South Asian</p>\n                <p>Sex: Female</p>\n                <p>Age: 21</p>\n            </div>\n        </div></div>","response":1,"left_index":4,"right_index":6,"left_image":"https://raw.githubusercontent.com/githubpsyche/images/main/characters/Age_25-31_male_south-asian/cdf_IM-627_south-asian_male_28.jpg","right_image":"https://raw.githubusercontent.com/githubpsyche/images/main/characters/Age_24_female_south-asian/cdf_IF-620_south-asian_female_21.jpg","trial_type":"html-button-response","trial_index":24,"time_elapsed":90237,"internal_node_id":"0.0-24.0","choice":"right","winner":6,"loser":4},{"rt":2101,"stimulus":"<div class=\"trial-container\"><div class=\"character-container\">\n            <img src=\"https://raw.githubusercontent.com/githubpsyche/images/main/characters/Age_39_male_latino/cdf_LM-203_latino_male_44.jpg\" alt=\"Character latino male\">\n            <div>\n                <p>Race: Latino</p>\n                <p>Sex: Male</p>\n                <p>Age: 44</p>\n            </div>\n        </div><div class=\"character-container\">\n            <img src=\"https://raw.githubusercontent.com/githubpsyche/images/main/characters/Age_25-31_female_south-asian/cdf_IF-668_south-asian_female_28.jpg\" alt=\"Character south-asian female\">\n            <div>\n                <p>Race: South Asian</p>\n                <p>Sex: Female</p>\n                <p>Age: 28</p>\n            </div>\n        </div></div>","response":1,"left_index":5,"right_index":7,"left_image":"https://raw.githubusercontent.com/githubpsyche/images/main/characters/Age_39_male_latino/cdf_LM-203_latino_male_44.jpg","right_image":"https://raw.githubusercontent.com/githubpsyche/images/main/characters/Age_25-31_female_south-asian/cdf_IF-668_south-asian_female_28.jpg","trial_type":"html-button-response","trial_index":25,"time_elapsed":92339,"internal_node_id":"0.0-25.0","choice":"right","winner":7,"loser":5},{"rt":1583,"stimulus":"<div class=\"trial-container\"><div class=\"character-container\">\n            <img src=\"https://raw.githubusercontent.com/githubpsyche/images/main/characters/Age_39_female_latino/cdf_LF-238_latino_female_42.jpg\" alt=\"Character latino female\">\n            <div>\n                <p>Race: Latino</p>\n                <p>Sex: Female</p>\n                <p>Age: 42</p>\n            </div>\n        </div><div class=\"character-container\">\n            <img src=\"https://raw.githubusercontent.com/githubpsyche/images/main/characters/Age_25-31_male_south-asian/cdf_IM-627_south-asian_male_28.jpg\" alt=\"Character south-asian male\">\n            <div>\n                <p>Race: South Asian</p>\n                <p>Sex: Male</p>\n                <p>Age: 28</p>\n            </div>\n        </div></div>","response":1,"left_index":0,"right_index":4,"left_image":"https://raw.githubusercontent.com/githubpsyche/images/main/characters/Age_39_female_latino/cdf_LF-238_latino_female_42.jpg","right_image":"https://raw.githubusercontent.com/githubpsyche/images/main/characters/Age_25-31_male_south-asian/cdf_IM-627_south-asian_male_28.jpg","trial_type":"html-button-response","trial_index":26,"time_elapsed":93924,"internal_node_id":"0.0-26.0","choice":"right","winner":4,"loser":0},{"rt":1362,"stimulus":"<div class=\"trial-container\"><div class=\"character-container\">\n            <img src=\"https://raw.githubusercontent.com/githubpsyche/images/main/characters/Age_39_male_latino/cdf_LM-203_latino_male_44.jpg\" alt=\"Character latino male\">\n            <div>\n                <p>Race: Latino</p>\n                <p>Sex: Male</p>\n                <p>Age: 44</p>\n            </div>\n        </div><div class=\"character-container\">\n            <img src=\"https://raw.githubusercontent.com/githubpsyche/images/main/characters/Age_32-38_male_latino/cdf_LM-228_latino_male_36.jpg\" alt=\"Character latino male\">\n            <div>\n                <p>Race: Latino</p>\n                <p>Sex: Male</p>\n                <p>Age: 36</p>\n            </div>\n        </div></div>","response":1,"left_index":5,"right_index":8,"left_image":"https://raw.githubusercontent.com/githubpsyche/images/main/characters/Age_39_male_latino/cdf_LM-203_latino_male_44.jpg","right_image":"https://raw.githubusercontent.com/githubpsyche/images/main/characters/Age_32-38_male_latino/cdf_LM-228_latino_male_36.jpg","trial_type":"html-button-response","trial_index":27,"time_elapsed":95287,"internal_node_id":"0.0-27.0","choice":"right","winner":8,"loser":5},{"rt":2855,"stimulus":"<div class=\"trial-container\"><div class=\"character-container\">\n            <img src=\"https://raw.githubusercontent.com/githubpsyche/images/main/characters/Age_39_female_latino/cdf_LF-238_latino_female_42.jpg\" alt=\"Character latino female\">\n            <div>\n                <p>Race: Latino</p>\n                <p>Sex: Female</p>\n                <p>Age: 42</p>\n            </div>\n        </div><div class=\"character-container\">\n            <img src=\"https://raw.githubusercontent.com/githubpsyche/images/main/characters/Age_32-38_male_east-asian/cdf_AM-240_east-asian_male_34.jpg\" alt=\"Character east-asian male\">\n            <div>\n                <p>Race: East Asian</p>\n                <p>Sex: Male</p>\n                <p>Age: 34</p>\n            </div>\n        </div></div>","response":1,"left_index":0,"right_index":1,"left_image":"https://raw.githubusercontent.com/githubpsyche/images/main/characters/Age_39_female_latino/cdf_LF-238_latino_female_42.jpg","right_image":"https://raw.githubusercontent.com/githubpsyche/images/main/characters/Age_32-38_male_east-asian/cdf_AM-240_east-asian_male_34.jpg","trial_type":"html-button-response","trial_index":28,"time_elapsed":98143,"internal_node_id":"0.0-28.0","choice":"right","winner":1,"loser":0},{"rt":1505,"stimulus":"<div class=\"trial-container\"><div class=\"character-container\">\n            <img src=\"https://raw.githubusercontent.com/githubpsyche/images/main/characters/Age_32-38_female_white/cdf_WF-023_white_female_33.jpg\" alt=\"Character white female\">\n            <div>\n                <p>Race: White</p>\n                <p>Sex: Female</p>\n                <p>Age: 33</p>\n            </div>\n        </div><div class=\"character-container\">\n            <img src=\"https://raw.githubusercontent.com/githubpsyche/images/main/characters/Age_25-31_female_south-asian/cdf_IF-668_south-asian_female_28.jpg\" alt=\"Character south-asian female\">\n            <div>\n                <p>Race: South Asian</p>\n                <p>Sex: Female</p>\n                <p>Age: 28</p>\n            </div>\n        </div></div>","response":1,"left_index":3,"right_index":7,"left_image":"https://raw.githubusercontent.com/githubpsyche/images/main/characters/Age_32-38_female_white/cdf_WF-023_white_female_33.jpg","right_image":"https://raw.githubusercontent.com/githubpsyche/images/main/characters/Age_25-31_female_south-asian/cdf_IF-668_south-asian_female_28.jpg","trial_type":"html-button-response","trial_index":29,"time_elapsed":99650,"internal_node_id":"0.0-29.0","choice":"right","winner":7,"loser":3},{"rt":1689,"stimulus":"<div class=\"trial-container\"><div class=\"character-container\">\n            <img src=\"https://raw.githubusercontent.com/githubpsyche/images/main/characters/Age_39_female_latino/cdf_LF-238_latino_female_42.jpg\" alt=\"Character latino female\">\n            <div>\n                <p>Race: Latino</p>\n                <p>Sex: Female</p>\n                <p>Age: 42</p>\n            </div>\n        </div><div class=\"character-container\">\n            <img src=\"https://raw.githubusercontent.com/githubpsyche/images/main/characters/Age_32-38_male_latino/cdf_LM-228_latino_male_36.jpg\" alt=\"Character latino male\">\n            <div>\n                <p>Race: Latino</p>\n                <p>Sex: Male</p>\n                <p>Age: 36</p>\n            </div>\n        </div></div>","response":1,"left_index":0,"right_index":8,"left_image":"https://raw.githubusercontent.com/githubpsyche/images/main/characters/Age_39_female_latino/cdf_LF-238_latino_female_42.jpg","right_image":"https://raw.githubusercontent.com/githubpsyche/images/main/characters/Age_32-38_male_latino/cdf_LM-228_latino_male_36.jpg","trial_type":"html-button-response","trial_index":30,"time_elapsed":101340,"internal_node_id":"0.0-30.0","choice":"right","winner":8,"loser":0},{"rt":1495,"stimulus":"<div class=\"trial-container\"><div class=\"character-container\">\n            <img src=\"https://raw.githubusercontent.com/githubpsyche/images/main/characters/Age_32-38_male_east-asian/cdf_AM-240_east-asian_male_34.jpg\" alt=\"Character east-asian male\">\n            <div>\n                <p>Race: East Asian</p>\n                <p>Sex: Male</p>\n                <p>Age: 34</p>\n            </div>\n        </div><div class=\"character-container\">\n            <img src=\"https://raw.githubusercontent.com/githubpsyche/images/main/characters/Age_25-31_male_south-asian/cdf_IM-627_south-asian_male_28.jpg\" alt=\"Character south-asian male\">\n            <div>\n                <p>Race: South Asian</p>\n                <p>Sex: Male</p>\n                <p>Age: 28</p>\n            </div>\n        </div></div>","response":1,"left_index":1,"right_index":4,"left_image":"https://raw.githubusercontent.com/githubpsyche/images/main/characters/Age_32-38_male_east-asian/cdf_AM-240_east-asian_male_34.jpg","right_image":"https://raw.githubusercontent.com/githubpsyche/images/main/characters/Age_25-31_male_south-asian/cdf_IM-627_south-asian_male_28.jpg","trial_type":"html-button-response","trial_index":31,"time_elapsed":102837,"internal_node_id":"0.0-31.0","choice":"right","winner":4,"loser":1},{"rt":4122,"stimulus":"<div class=\"trial-container\"><div class=\"character-container\">\n            <img src=\"https://raw.githubusercontent.com/githubpsyche/images/main/characters/Age_39_female_latino/cdf_LF-238_latino_female_42.jpg\" alt=\"Character latino female\">\n            <div>\n                <p>Race: Latino</p>\n                <p>Sex: Female</p>\n                <p>Age: 42</p>\n            </div>\n        </div><div class=\"character-container\">\n            <img src=\"https://raw.githubusercontent.com/githubpsyche/images/main/characters/Age_25-31_female_white/cdf_WF-215_white_female_31.jpg\" alt=\"Character white female\">\n            <div>\n                <p>Race: White</p>\n                <p>Sex: Female</p>\n                <p>Age: 31</p>\n            </div>\n        </div></div>","response":1,"left_index":0,"right_index":2,"left_image":"https://raw.githubusercontent.com/githubpsyche/images/main/characters/Age_39_female_latino/cdf_LF-238_latino_female_42.jpg","right_image":"https://raw.githubusercontent.com/githubpsyche/images/main/characters/Age_25-31_female_white/cdf_WF-215_white_female_31.jpg","trial_type":"html-button-response","trial_index":32,"time_elapsed":106960,"internal_node_id":"0.0-32.0","choice":"right","winner":2,"loser":0},{"rt":1433,"stimulus":"<div class=\"trial-container\"><div class=\"character-container\">\n            <img src=\"https://raw.githubusercontent.com/githubpsyche/images/main/characters/Age_32-38_male_east-asian/cdf_AM-240_east-asian_male_34.jpg\" alt=\"Character east-asian male\">\n            <div>\n                <p>Race: East Asian</p>\n                <p>Sex: Male</p>\n                <p>Age: 34</p>\n            </div>\n        </div><div class=\"character-container\">\n            <img src=\"https://raw.githubusercontent.com/githubpsyche/images/main/characters/Age_32-38_female_white/cdf_WF-023_white_female_33.jpg\" alt=\"Character white female\">\n            <div>\n                <p>Race: White</p>\n                <p>Sex: Female</p>\n                <p>Age: 33</p>\n            </div>\n        </div></div>","response":1,"left_index":1,"right_index":3,"left_image":"https://raw.githubusercontent.com/githubpsyche/images/main/characters/Age_32-38_male_east-asian/cdf_AM-240_east-asian_male_34.jpg","right_image":"https://raw.githubusercontent.com/githubpsyche/images/main/characters/Age_32-38_female_white/cdf_WF-023_white_female_33.jpg","trial_type":"html-button-response","trial_index":33,"time_elapsed":108395,"internal_node_id":"0.0-33.0","choice":"right","winner":3,"loser":1},{"rt":2199,"stimulus":"<div class=\"trial-container\"><div class=\"character-container\">\n            <img src=\"https://raw.githubusercontent.com/githubpsyche/images/main/characters/Age_39_female_latino/cdf_LF-238_latino_female_42.jpg\" alt=\"Character latino female\">\n            <div>\n                <p>Race: Latino</p>\n                <p>Sex: Female</p>\n                <p>Age: 42</p>\n            </div>\n        </div><div class=\"character-container\">\n            <img src=\"https://raw.githubusercontent.com/githubpsyche/images/main/characters/Age_39_male_latino/cdf_LM-203_latino_male_44.jpg\" alt=\"Character latino male\">\n            <div>\n                <p>Race: Latino</p>\n                <p>Sex: Male</p>\n                <p>Age: 44</p>\n            </div>\n        </div></div>","response":1,"left_index":0,"right_index":5,"left_image":"https://raw.githubusercontent.com/githubpsyche/images/main/characters/Age_39_female_latino/cdf_LF-238_latino_female_42.jpg","right_image":"https://raw.githubusercontent.com/githubpsyche/images/main/characters/Age_39_male_latino/cdf_LM-203_latino_male_44.jpg","trial_type":"html-button-response","trial_index":34,"time_elapsed":110596,"internal_node_id":"0.0-34.0","choice":"right","winner":5,"loser":0},{"rt":1606,"stimulus":"<div class=\"trial-container\"><div class=\"character-container\">\n            <img src=\"https://raw.githubusercontent.com/githubpsyche/images/main/characters/Age_25-31_female_white/cdf_WF-215_white_female_31.jpg\" alt=\"Character white female\">\n            <div>\n                <p>Race: White</p>\n                <p>Sex: Female</p>\n                <p>Age: 31</p>\n            </div>\n        </div><div class=\"character-container\">\n            <img src=\"https://raw.githubusercontent.com/githubpsyche/images/main/characters/Age_25-31_female_south-asian/cdf_IF-668_south-asian_female_28.jpg\" alt=\"Character south-asian female\">\n            <div>\n                <p>Race: South Asian</p>\n                <p>Sex: Female</p>\n                <p>Age: 28</p>\n            </div>\n        </div></div>","response":1,"left_index":2,"right_index":7,"left_image":"https://raw.githubusercontent.com/githubpsyche/images/main/characters/Age_25-31_female_white/cdf_WF-215_white_female_31.jpg","right_image":"https://raw.githubusercontent.com/githubpsyche/images/main/characters/Age_25-31_female_south-asian/cdf_IF-668_south-asian_female_28.jpg","trial_type":"html-button-response","trial_index":35,"time_elapsed":112205,"internal_node_id":"0.0-35.0","choice":"right","winner":7,"loser":2},{"rt":1519,"stimulus":"<div class=\"trial-container\"><div class=\"character-container\">\n            <img src=\"https://raw.githubusercontent.com/githubpsyche/images/main/characters/Age_32-38_female_white/cdf_WF-023_white_female_33.jpg\" alt=\"Character white female\">\n            <div>\n                <p>Race: White</p>\n                <p>Sex: Female</p>\n                <p>Age: 33</p>\n            </div>\n        </div><div class=\"character-container\">\n            <img src=\"https://raw.githubusercontent.com/githubpsyche/images/main/characters/Age_24_female_south-asian/cdf_IF-620_south-asian_female_21.jpg\" alt=\"Character south-asian female\">\n            <div>\n                <p>Race: South Asian</p>\n                <p>Sex: Female</p>\n                <p>Age: 21</p>\n            </div>\n        </div></div>","response":1,"left_index":3,"right_index":6,"left_image":"https://raw.githubusercontent.com/githubpsyche/images/main/characters/Age_32-38_female_white/cdf_WF-023_white_female_33.jpg","right_image":"https://raw.githubusercontent.com/githubpsyche/images/main/characters/Age_24_female_south-asian/cdf_IF-620_south-asian_female_21.jpg","trial_type":"html-button-response","trial_index":36,"time_elapsed":113726,"internal_node_id":"0.0-36.0","choice":"right","winner":6,"loser":3},{"rt":1329,"stimulus":"<div class=\"trial-container\"><div class=\"character-container\">\n            <img src=\"https://raw.githubusercontent.com/githubpsyche/images/main/characters/Age_39_female_latino/cdf_LF-238_latino_female_42.jpg\" alt=\"Character latino female\">\n            <div>\n                <p>Race: Latino</p>\n                <p>Sex: Female</p>\n                <p>Age: 42</p>\n            </div>\n        </div><div class=\"character-container\">\n            <img src=\"https://raw.githubusercontent.com/githubpsyche/images/main/characters/Age_25-31_female_south-asian/cdf_IF-668_south-asian_female_28.jpg\" alt=\"Character south-asian female\">\n            <div>\n                <p>Race: South Asian</p>\n                <p>Sex: Female</p>\n                <p>Age: 28</p>\n            </div>\n        </div></div>","response":1,"left_index":0,"right_index":7,"left_image":"https://raw.githubusercontent.com/githubpsyche/images/main/characters/Age_39_female_latino/cdf_LF-238_latino_female_42.jpg","right_image":"https://raw.githubusercontent.com/githubpsyche/images/main/characters/Age_25-31_female_south-asian/cdf_IF-668_south-asian_female_28.jpg","trial_type":"html-button-response","trial_index":37,"time_elapsed":115057,"internal_node_id":"0.0-37.0","choice":"right","winner":7,"loser":0},{"rt":1797,"stimulus":"<div class=\"trial-container\"><div class=\"character-container\">\n            <img src=\"https://raw.githubusercontent.com/githubpsyche/images/main/characters/Age_32-38_male_east-asian/cdf_AM-240_east-asian_male_34.jpg\" alt=\"Character east-asian male\">\n            <div>\n                <p>Race: East Asian</p>\n                <p>Sex: Male</p>\n                <p>Age: 34</p>\n            </div>\n        </div><div class=\"character-container\">\n            <img src=\"https://raw.githubusercontent.com/githubpsyche/images/main/characters/Age_25-31_female_white/cdf_WF-215_white_female_31.jpg\" alt=\"Character white female\">\n            <div>\n                <p>Race: White</p>\n                <p>Sex: Female</p>\n                <p>Age: 31</p>\n            </div>\n        </div></div>","response":1,"left_index":1,"right_index":2,"left_image":"https://raw.githubusercontent.com/githubpsyche/images/main/characters/Age_32-38_male_east-asian/cdf_AM-240_east-asian_male_34.jpg","right_image":"https://raw.githubusercontent.com/githubpsyche/images/main/characters/Age_25-31_female_white/cdf_WF-215_white_female_31.jpg","trial_type":"html-button-response","trial_index":38,"time_elapsed":116855,"internal_node_id":"0.0-38.0","choice":"right","winner":2,"loser":1},{"rt":867,"stimulus":"<div class=\"trial-container\"><div class=\"character-container\">\n            <img src=\"https://raw.githubusercontent.com/githubpsyche/images/main/characters/Age_25-31_male_south-asian/cdf_IM-627_south-asian_male_28.jpg\" alt=\"Character south-asian male\">\n            <div>\n                <p>Race: South Asian</p>\n                <p>Sex: Male</p>\n                <p>Age: 28</p>\n            </div>\n        </div><div class=\"character-container\">\n            <img src=\"https://raw.githubusercontent.com/githubpsyche/images/main/characters/Age_39_male_latino/cdf_LM-203_latino_male_44.jpg\" alt=\"Character latino male\">\n            <div>\n                <p>Race: Latino</p>\n                <p>Sex: Male</p>\n                <p>Age: 44</p>\n            </div>\n        </div></div>","response":1,"left_index":4,"right_index":5,"left_image":"https://raw.githubusercontent.com/githubpsyche/images/main/characters/Age_25-31_male_south-asian/cdf_IM-627_south-asian_male_28.jpg","right_image":"https://raw.githubusercontent.com/githubpsyche/images/main/characters/Age_39_male_latino/cdf_LM-203_latino_male_44.jpg","trial_type":"html-button-response","trial_index":39,"time_elapsed":117724,"internal_node_id":"0.0-39.0","choice":"right","winner":5,"loser":4},{"rt":583,"stimulus":"<div class=\"trial-container\"><div class=\"character-container\">\n            <img src=\"https://raw.githubusercontent.com/githubpsyche/images/main/characters/Age_25-31_female_white/cdf_WF-215_white_female_31.jpg\" alt=\"Character white female\">\n            <div>\n                <p>Race: White</p>\n                <p>Sex: Female</p>\n                <p>Age: 31</p>\n            </div>\n        </div><div class=\"character-container\">\n            <img src=\"https://raw.githubusercontent.com/githubpsyche/images/main/characters/Age_24_female_south-asian/cdf_IF-620_south-asian_female_21.jpg\" alt=\"Character south-asian female\">\n            <div>\n                <p>Race: South Asian</p>\n                <p>Sex: Female</p>\n                <p>Age: 21</p>\n            </div>\n        </div></div>","response":1,"left_index":2,"right_index":6,"left_image":"https://raw.githubusercontent.com/githubpsyche/images/main/characters/Age_25-31_female_white/cdf_WF-215_white_female_31.jpg","right_image":"https://raw.githubusercontent.com/githubpsyche/images/main/characters/Age_24_female_south-asian/cdf_IF-620_south-asian_female_21.jpg","trial_type":"html-button-response","trial_index":40,"time_elapsed":118308,"internal_node_id":"0.0-40.0","choice":"right","winner":6,"loser":2},{"rt":2768,"stimulus":"<div class=\"trial-container\"><div class=\"character-container\">\n            <img src=\"https://raw.githubusercontent.com/githubpsyche/images/main/characters/Age_32-38_female_white/cdf_WF-023_white_female_33.jpg\" alt=\"Character white female\">\n            <div>\n                <p>Race: White</p>\n                <p>Sex: Female</p>\n                <p>Age: 33</p>\n            </div>\n        </div><div class=\"character-container\">\n            <img src=\"https://raw.githubusercontent.com/githubpsyche/images/main/characters/Age_39_male_latino/cdf_LM-203_latino_male_44.jpg\" alt=\"Character latino male\">\n            <div>\n                <p>Race: Latino</p>\n                <p>Sex: Male</p>\n                <p>Age: 44</p>\n            </div>\n        </div></div>","response":0,"left_index":3,"right_index":5,"left_image":"https://raw.githubusercontent.com/githubpsyche/images/main/characters/Age_32-38_female_white/cdf_WF-023_white_female_33.jpg","right_image":"https://raw.githubusercontent.com/githubpsyche/images/main/characters/Age_39_male_latino/cdf_LM-203_latino_male_44.jpg","trial_type":"html-button-response","trial_index":41,"time_elapsed":121077,"internal_node_id":"0.0-41.0","choice":"left","winner":3,"loser":5},{"rt":2085,"stimulus":"<div class=\"trial-container\"><div class=\"character-container\">\n            <img src=\"https://raw.githubusercontent.com/githubpsyche/images/main/characters/Age_32-38_male_east-asian/cdf_AM-240_east-asian_male_34.jpg\" alt=\"Character east-asian male\">\n            <div>\n                <p>Race: East Asian</p>\n                <p>Sex: Male</p>\n                <p>Age: 34</p>\n            </div>\n        </div><div class=\"character-container\">\n            <img src=\"https://raw.githubusercontent.com/githubpsyche/images/main/characters/Age_24_female_south-asian/cdf_IF-620_south-asian_female_21.jpg\" alt=\"Character south-asian female\">\n            <div>\n                <p>Race: South Asian</p>\n                <p>Sex: Female</p>\n                <p>Age: 21</p>\n            </div>\n        </div></div>","response":1,"left_index":1,"right_index":6,"left_image":"https://raw.githubusercontent.com/githubpsyche/images/main/characters/Age_32-38_male_east-asian/cdf_AM-240_east-asian_male_34.jpg","right_image":"https://raw.githubusercontent.com/githubpsyche/images/main/characters/Age_24_female_south-asian/cdf_IF-620_south-asian_female_21.jpg","trial_type":"html-button-response","trial_index":42,"time_elapsed":123163,"internal_node_id":"0.0-42.0","choice":"right","winner":6,"loser":1},{"view_history":[{"page_index":0,"viewing_time":1208}],"rt":1208,"condition":1,"trial_type":"instructions","trial_index":43,"time_elapsed":124372,"internal_node_id":"0.0-43.0"},{"rt":null,"stimulus":"\n        <p style=\"font-size: 20px;\">One moment. We are sorting you into a lobby.</p>\n        <img src=\"experiments/sortablerank/loading.gif\" style=\"width: 100px; height: 100px;\">","response":null,"trial_type":"html-keyboard-response","trial_index":44,"time_elapsed":127374,"internal_node_id":"0.0-44.0"},{"unsorted_items":[],"team_left_items":[{"index":"locked","label":"locked","content":"<span class=\"rank-number\">1</span><span class=\"lock-icon\">🔒</span><div>\n            <img src=\"experiments/sortablerank/user.png\" alt=\"Participant\">\n            <div>\n                <p><strong>You (Leader)</strong></p>\n            </div>\n        </div>"},{"index":7,"label":"https://raw.githubusercontent.com/githubpsyche/images/main/characters/Age_24_female_east-asian/cdf_AF-209_east-asian_female_23.jpg","content":"\n            <img src=\"https://raw.githubusercontent.com/githubpsyche/images/main/characters/Age_24_female_east-asian/cdf_AF-209_east-asian_female_23.jpg\" alt=\"Character east-asian female\">\n            <div>\n                <p>Race: East Asian</p>\n                <p>Sex: Female</p>\n                <p>Age: 23</p>\n            </div>\n        "},{"index":4,"label":"https://raw.githubusercontent.com/githubpsyche/images/main/characters/Age_24_male_black/cdf_BM-037_black_male_21.jpg","content":"\n            <img src=\"https://raw.githubusercontent.com/githubpsyche/images/main/characters/Age_24_male_black/cdf_BM-037_black_male_21.jpg\" alt=\"Character black male\">\n            <div>\n                <p>Race: Black</p>\n                <p>Sex: Male</p>\n                <p>Age: 21</p>\n            </div>\n        "},{"index":3,"label":"https://raw.githubusercontent.com/githubpsyche/images/main/characters/Age_25-31_male_east-asian/cdf_AM-207_east-asian_male_26.jpg","content":"\n            <img src=\"https://raw.githubusercontent.com/githubpsyche/images/main/characters/Age_25-31_male_east-asian/cdf_AM-207_east-asian_male_26.jpg\" alt=\"Character east-asian male\">\n            <div>\n                <p>Race: East Asian</p>\n                <p>Sex: Male</p>\n                <p>Age: 26</p>\n            </div>\n        "},{"index":5,"label":"https://raw.githubusercontent.com/githubpsyche/images/main/characters/Age_25-31_male_latino/cdf_LM-253_latino_male_28.jpg","content":"\n            <img src=\"https://raw.githubusercontent.com/githubpsyche/images/main/characters/Age_25-31_male_latino/cdf_LM-253_latino_male_28.jpg\" alt=\"Character latino male\">\n            <div>\n                <p>Race: Latino</p>\n                <p>Sex: Male</p>\n                <p>Age: 28</p>\n            </div>\n        "}],"team_right_items":[{"index":2,"label":"https://raw.githubusercontent.com/githubpsyche/images/main/characters/Age_24_male_latino/cdf_LM-250_latino_male_23.jpg","content":"\n            <img src=\"https://raw.githubusercontent.com/githubpsyche/images/main/characters/Age_24_male_latino/cdf_LM-250_latino_male_23.jpg\" alt=\"Character latino male\">\n            <div>\n                <p>Race: Latino</p>\n                <p>Sex: Male</p>\n                <p>Age: 23</p>\n            </div>\n        "},{"index":9,"label":"https://raw.githubusercontent.com/githubpsyche/images/main/characters/Age_25-31_female_east-asian/cdf_AF-207_east-asian_female_28.jpg","content":"\n            <img src=\"https://raw.githubusercontent.com/githubpsyche/images/main/characters/Age_25-31_female_east-asian/cdf_AF-207_east-asian_female_28.jpg\" alt=\"Character east-asian female\">\n            <div>\n                <p>Race: East Asian</p>\n                <p>Sex: Female</p>\n                <p>Age: 28</p>\n            </div>\n        "},{"index":8,"label":"https://raw.githubusercontent.com/githubpsyche/images/main/characters/Age_32-38_male_south-asian/cdf_IM-638_south-asian_male_33.jpg","content":"\n            <img src=\"https://raw.githubusercontent.com/githubpsyche/images/main/characters/Age_32-38_male_south-asian/cdf_IM-638_south-asian_male_33.jpg\" alt=\"Character south-asian male\">\n            <div>\n                <p>Race: South Asian</p>\n                <p>Sex: Male</p>\n                <p>Age: 33</p>\n            </div>\n        "},{"index":1,"label":"https://raw.githubusercontent.com/githubpsyche/images/main/characters/Age_24_male_white/cdf_WM-001_white_male_17.jpg","content":"\n            <img src=\"https://raw.githubusercontent.com/githubpsyche/images/main/characters/Age_24_male_white/cdf_WM-001_white_male_17.jpg\" alt=\"Character white male\">\n            <div>\n                <p>Race: White</p>\n                <p>Sex: Male</p>\n                <p>Age: 17</p>\n            </div>\n        "},{"index":6,"label":"https://raw.githubusercontent.com/githubpsyche/images/main/characters/Age_25-31_male_black/cdf_BM-039_black_male_25.jpg","content":"\n            <img src=\"https://raw.githubusercontent.com/githubpsyche/images/main/characters/Age_25-31_male_black/cdf_BM-039_black_male_25.jpg\" alt=\"Character black male\">\n            <div>\n                <p>Race: Black</p>\n                <p>Sex: Male</p>\n                <p>Age: 25</p>\n            </div>\n        "}],"trial_type":"sortable-rank","trial_index":45,"time_elapsed":208148,"internal_node_id":"0.0-45.0"},{"rt":5639,"response":{"deception":"yes"},"trial_type":"survey-html-form","trial_index":46,"time_elapsed":213789,"internal_node_id":"0.0-46.0"},{"view_history":[{"page_index":0,"viewing_time":1386}],"rt":1386,"trial_type":"instructions","trial_index":47,"time_elapsed":215176,"internal_node_id":"0.0-47.0"}]
