[{"success":true,"rt":6403,"trial_type":"fullscreen","trial_index":0,"time_elapsed":7422,"internal_node_id":"0.0-0.0","PROLIFIC ID":"67d6ddf3e159eeccf998a6fb","data_path":"experiments/block_cat/block_cat.h5","stimuli_path":"experiments/block_cat/assets/cuefr_pool.txt","category_path":"experiments/block_cat/assets/cuefr_labels.txt","subjectId":0},{"view_history":[{"page_index":0,"viewing_time":14863},{"page_index":1,"viewing_time":23515},{"page_index":2,"viewing_time":52493},{"page_index":3,"viewing_time":83344},{"page_index":4,"viewing_time":14443},{"page_index":5,"viewing_time":19568},{"page_index":6,"viewing_time":25267},{"page_index":7,"viewing_time":21455}],"rt":254949,"trial_type":"instructions","trial_index":1,"time_elapsed":262374,"internal_node_id":"0.0-1.0","PROLIFIC ID":"67d6ddf3e159eeccf998a6fb","data_path":"experiments/block_cat/block_cat.h5","stimuli_path":"experiments/block_cat/assets/cuefr_pool.txt","category_path":"experiments/block_cat/assets/cuefr_labels.txt","subjectId":0},{"view_history":[{"page_index":0,"viewing_time":4733}],"rt":4733,"trial_type":"instructions","trial_index":2,"time_elapsed":267107,"internal_node_id":"0.0-2.0","PROLIFIC ID":"67d6ddf3e159eeccf998a6fb","data_path":"experiments/block_cat/block_cat.h5","stimuli_path":"experiments/block_cat/assets/cuefr_pool.txt","category_path":"experiments/block_cat/assets/cuefr_labels.txt","subjectId":0},{"trial_type":"call-function","trial_index":3,"time_elapsed":267109,"internal_node_id":"0.0-3.0","PROLIFIC ID":"67d6ddf3e159eeccf998a6fb","data_path":"experiments/block_cat/block_cat.h5","stimuli_path":"experiments/block_cat/assets/cuefr_pool.txt","category_path":"experiments/block_cat/assets/cuefr_labels.txt","subjectId":0},{"trial_type":"call-function","trial_index":4,"time_elapsed":267110,"internal_node_id":"0.0-4.0","PROLIFIC ID":"67d6ddf3e159eeccf998a6fb","data_path":"experiments/block_cat/block_cat.h5","stimuli_path":"experiments/block_cat/assets/cuefr_pool.txt","category_path":"experiments/block_cat/assets/cuefr_labels.txt","subjectId":0},{"load_time":283135.59999996424,"fixation_display_time":283135.6999999881,"trial_type":"fixation","trial_index":5,"time_elapsed":268126,"internal_node_id":"0.0-5.0","PROLIFIC ID":"67d6ddf3e159eeccf998a6fb","data_path":"experiments/block_cat/block_cat.h5","stimuli_path":"experiments/block_cat/assets/cuefr_pool.txt","category_path":"experiments/block_cat/assets/cuefr_labels.txt","subjectId":0},{"load_time":284155.39999997616,"word_display_times":[284155.7999999523,287173.7999999523,290188.39999997616,293207.89999997616,296217.09999996424,299226.1999999881,302255.6999999881,305257.7999999523,308273.6999999881,311300.89999997616,314311.09999996424,317326.09999996424,320333.09999996424,323356.89999997616,326383.59999996424],"word_list":["PERU","MISSISSIPPI","CURRY","SCHOONER","KAYAK","CRUISE SHIP","TEAL","SHARK","EGGPLANT","SUBMARINE","FERRY","PADDLE BOAT","JOURNAL","SWEATER","PIG"],"category_list":["COUNTRIES","STATES","SEASONINGS","SHIPS","SHIPS","SHIPS","COLORS","FISH","VEGETABLES","SHIPS","SHIPS","SHIPS","READING MATERIALS","CLOTHES","FOUR-FOOTED ANIMALS"],"trial_type":"item-presentation","trial_index":6,"time_elapsed":313378,"internal_node_id":"0.0-6.0","PROLIFIC ID":"67d6ddf3e159eeccf998a6fb","data_path":"experiments/block_cat/block_cat.h5","stimuli_path":"experiments/block_cat/assets/cuefr_pool.txt","category_path":"experiments/block_cat/assets/cuefr_labels.txt","subjectId":0},{"load_time":329411.7999999523,"recall_display_time":329413,"category_cue":"SHIPS","recall_responses":[["f",7539],["e",355],["r",503],["r",218],["y",233],["ENTER",884]],"recall_words":["ferry"],"recall_word_response_times":[7539],"category_target":410,"category_target_string":"KAYAK","trial_type":"free-recall","trial_index":7,"time_elapsed":323126,"internal_node_id":"0.0-7.0","PROLIFIC ID":"67d6ddf3e159eeccf998a6fb","data_path":"experiments/block_cat/block_cat.h5","stimuli_path":"experiments/block_cat/assets/cuefr_pool.txt","category_path":"experiments/block_cat/assets/cuefr_labels.txt","subjectId":0},{"load_time":339150.2999999523,"recall_display_time":339150.39999997616,"category_cue":"","recall_responses":[["p",5324],["i",339],["g",423],["ENTER",943],["s",6026],["w",347],["e",208],["a",243],["t",492],["e",269],["r",193],["ENTER",736],["j",2642],["o",286],["u",359],["r",544],["n",472],["a",329],["l",483],["ENTER",1792],["p",2394],["a",514],["d",325],["d",167],["l",655],["e",411],[" ",503],["b",223],["o",441],["a",401],["t",332],["ENTER",816],["s",4015],["u",543],["b",290],["m",345],["a",381],["r",299],["i",503],["n",264],["e",331],["ENTER",653],["e",3120],["g",351],["g",131],["p",544],["l",239],["a",391],["n",504],["t",314],["ENTER",593],["s",2765],["h",462],["a",345],["r",269],["k",1397],["ENTER",896]],"recall_words":["pig","sweater","journal","paddle boat","submarine","eggplant","shark"],"recall_word_response_times":[5324,6026,2642,2394,4015,3120,2765],"category_target":"","category_target_string":"","trial_type":"free-recall","trial_index":8,"time_elapsed":373136,"internal_node_id":"0.0-8.0","PROLIFIC ID":"67d6ddf3e159eeccf998a6fb","data_path":"experiments/block_cat/block_cat.h5","stimuli_path":"experiments/block_cat/assets/cuefr_pool.txt","category_path":"experiments/block_cat/assets/cuefr_labels.txt","subjectId":0},{"trial_type":"call-function","trial_index":9,"time_elapsed":373137,"internal_node_id":"0.0-9.0","PROLIFIC ID":"67d6ddf3e159eeccf998a6fb","data_path":"experiments/block_cat/block_cat.h5","stimuli_path":"experiments/block_cat/assets/cuefr_pool.txt","category_path":"experiments/block_cat/assets/cuefr_labels.txt","subjectId":0},{"view_history":[{"page_index":0,"viewing_time":114399}],"rt":114400,"trial_index":10,"trial_count":15,"message":"<p >You've completed the first trial! Please click the right arrow on your keyboard to proceed to the next trial.</p>","trial_type":"instructions","time_elapsed":487546,"internal_node_id":"0.0-10.0","PROLIFIC ID":"67d6ddf3e159eeccf998a6fb","data_path":"experiments/block_cat/block_cat.h5","stimuli_path":"experiments/block_cat/assets/cuefr_pool.txt","category_path":"experiments/block_cat/assets/cuefr_labels.txt","subjectId":0},{"trial_type":"call-function","trial_index":11,"time_elapsed":487547,"internal_node_id":"0.0-11.0","PROLIFIC ID":"67d6ddf3e159eeccf998a6fb","data_path":"experiments/block_cat/block_cat.h5","stimuli_path":"experiments/block_cat/assets/cuefr_pool.txt","category_path":"experiments/block_cat/assets/cuefr_labels.txt","subjectId":0},{"load_time":503570.2999999523,"fixation_display_time":503570.2999999523,"trial_type":"fixation","trial_index":12,"time_elapsed":488558,"internal_node_id":"0.0-12.0","PROLIFIC ID":"67d6ddf3e159eeccf998a6fb","data_path":"experiments/block_cat/block_cat.h5","stimuli_path":"experiments/block_cat/assets/cuefr_pool.txt","category_path":"experiments/block_cat/assets/cuefr_labels.txt","subjectId":0},{"load_time":504584,"word_display_times":[504584.09999996424,507600.5,510627.39999997616,513640.89999997616,516653.6999999881,519663.1999999881,522681.1999999881,525701.2999999523,528720.2999999523,531738.1999999881,534756.1999999881,537773.3999999762,540798.5999999642,543817.7999999523,546834.7999999523],"word_list":["BACK","RALEIGH","RASPBERRY","DANDELION","LILAC","PANSY","STUDENT","SODIUM","SWIMMING","ROSE","SUNFLOWER","LILY","SYCAMORE","STOVE","FLANNEL"],"category_list":["BODY PARTS","CITIES","FRUIT","FLOWERS","FLOWERS","FLOWERS","OCCUPATIONS","ELEMENTS","SPORTS","FLOWERS","FLOWERS","FLOWERS","TREES","KITCHEN TOOLS","FABRICS"],"trial_type":"item-presentation","trial_index":13,"time_elapsed":533823,"internal_node_id":"0.0-13.0","PROLIFIC ID":"67d6ddf3e159eeccf998a6fb","data_path":"experiments/block_cat/block_cat.h5","stimuli_path":"experiments/block_cat/assets/cuefr_pool.txt","category_path":"experiments/block_cat/assets/cuefr_labels.txt","subjectId":0},{"load_time":549852.6999999881,"recall_display_time":549852.8999999762,"category_cue":"","recall_responses":[["f",7236],["k",491],["backspace",832],["l",336],["a",461],["n",564]],"recall_words":["flan"],"recall_word_response_times":[7236,0],"category_target":0,"category_target_string":"","trial_type":"free-recall","trial_index":14,"time_elapsed":543832,"internal_node_id":"0.0-14.0","PROLIFIC ID":"67d6ddf3e159eeccf998a6fb","data_path":"experiments/block_cat/block_cat.h5","stimuli_path":"experiments/block_cat/assets/cuefr_pool.txt","category_path":"experiments/block_cat/assets/cuefr_labels.txt","subjectId":0},{"load_time":559861.1999999881,"recall_display_time":559861.7999999523,"category_cue":"","recall_responses":[["n",50],["e",303],["l",513],["backspace",2300],["backspace",334],["backspace",350],["f",772],["l",461],["a",574],["n",543],["n",132],["e",319],["l",553],["ENTER",563],["s",3427],["t",471],["o",615],["v",401],["e",273],["ENTER",624],["s",2002],["y",512],["v",289],["backspace",645],["c",430],["a",309],["m",533],["o",284],["r",441],["e",233],["ENTER",831],["l",2173],["i",259],["l",203],["y",310],["ENTER",540],["s",3110],["u",853],["n",284],["f",502],["l",542],["o",209],["w",572],["e",223],["r",228],["ENTER",1821],["r",2032],["o",668],["s",412],["e",214],["ENTER",662],["s",2343],["w",223],["i",572],["m",259],["m",152],["i",208],["n",233],["g",287],["ENTER",674],["s",2514],["o",502],["d",1095],["i",555],["u",238],["m",223],["ENTER",511],["s",1778],["t",573],["u",263],["d",431],["e",237]],"recall_words":["flannel","stove","sycamore","lily","sunflower","rose","swimming","sodium","stude"],"recall_word_response_times":[50,3427,2002,2173,3110,2032,2343,2514,1778,0],"category_target":"","category_target_string":"","trial_type":"free-recall","trial_index":15,"time_elapsed":593856,"internal_node_id":"0.0-15.0","PROLIFIC ID":"67d6ddf3e159eeccf998a6fb","data_path":"experiments/block_cat/block_cat.h5","stimuli_path":"experiments/block_cat/assets/cuefr_pool.txt","category_path":"experiments/block_cat/assets/cuefr_labels.txt","subjectId":0},{"trial_type":"call-function","trial_index":16,"time_elapsed":593857,"internal_node_id":"0.0-16.0","PROLIFIC ID":"67d6ddf3e159eeccf998a6fb","data_path":"experiments/block_cat/block_cat.h5","stimuli_path":"experiments/block_cat/assets/cuefr_pool.txt","category_path":"experiments/block_cat/assets/cuefr_labels.txt","subjectId":0},{"view_history":[{"page_index":0,"viewing_time":8468}],"rt":8468,"trial_index":17,"trial_count":15,"message":"<p >When you're ready to proceed, press Next.</p>","trial_type":"instructions","time_elapsed":602330,"internal_node_id":"0.0-17.0","PROLIFIC ID":"67d6ddf3e159eeccf998a6fb","data_path":"experiments/block_cat/block_cat.h5","stimuli_path":"experiments/block_cat/assets/cuefr_pool.txt","category_path":"experiments/block_cat/assets/cuefr_labels.txt","subjectId":0},{"trial_type":"call-function","trial_index":18,"time_elapsed":602330,"internal_node_id":"0.0-18.0","PROLIFIC ID":"67d6ddf3e159eeccf998a6fb","data_path":"experiments/block_cat/block_cat.h5","stimuli_path":"experiments/block_cat/assets/cuefr_pool.txt","category_path":"experiments/block_cat/assets/cuefr_labels.txt","subjectId":0},{"load_time":618352.8999999762,"fixation_display_time":618352.8999999762,"trial_type":"fixation","trial_index":19,"time_elapsed":603335,"internal_node_id":"0.0-19.0","PROLIFIC ID":"67d6ddf3e159eeccf998a6fb","data_path":"experiments/block_cat/block_cat.h5","stimuli_path":"experiments/block_cat/assets/cuefr_pool.txt","category_path":"experiments/block_cat/assets/cuefr_labels.txt","subjectId":0},{"load_time":619361.0999999642,"word_display_times":[619361.0999999642,622381.3999999762,625402.0999999642,628418,631425.8999999762,634439.0999999642,637459,640485.7999999523,643501,646512.0999999642,649534.5,652559.2999999523,655569,658585.8999999762,661605.7999999523],"word_list":["SANDPAPER","BASEMENT","NEW HAMPSHIRE","TRAILER","CASTLE","CONDOMINIUM","PORSCHE","HERRING","LAKE","SHACK","CABIN","DORMITORY","BULLETIN","RAVEN","SLEET"],"category_list":["CARPENTRY TOOLS","BUILDING PARTS","STATES","DWELLINGS","DWELLINGS","DWELLINGS","CAR MODELS","FISH","GEOGRAPHY TERMS","DWELLINGS","DWELLINGS","DWELLINGS","READING MATERIALS","BIRDS","WEATHER TERMS"],"trial_type":"item-presentation","trial_index":20,"time_elapsed":648608,"internal_node_id":"0.0-20.0","PROLIFIC ID":"67d6ddf3e159eeccf998a6fb","data_path":"experiments/block_cat/block_cat.h5","stimuli_path":"experiments/block_cat/assets/cuefr_pool.txt","category_path":"experiments/block_cat/assets/cuefr_labels.txt","subjectId":0},{"load_time":664637.5999999642,"recall_display_time":664638,"category_cue":"FISH","recall_responses":[],"recall_words":[],"recall_word_response_times":[],"category_target":224,"category_target_string":"HERRING","trial_type":"free-recall","trial_index":21,"time_elapsed":658630,"internal_node_id":"0.0-21.0","PROLIFIC ID":"67d6ddf3e159eeccf998a6fb","data_path":"experiments/block_cat/block_cat.h5","stimuli_path":"experiments/block_cat/assets/cuefr_pool.txt","category_path":"experiments/block_cat/assets/cuefr_labels.txt","subjectId":0},{"load_time":674659.0999999642,"recall_display_time":674659.3999999762,"category_cue":"","recall_responses":[["h",2460],["e",837],["r",229],["r",152],["i",736],["n",279],["g",299],["ENTER",1526],["p",2757],["o",203],["r",421],["s",400],["c",340],["h",431],["e",243],["ENTER",810],["c",1743],["o",512],["n",280],["d",794],["o",545],["m",1344],["i",821],["n",645],["i",355],["u",248],["m",913],["ENTER",1053],["c",1803],["a",278],["s",192],["t",599],["l",476],["e",412],["ENTER",551],["t",1940],["r",259],["a",776],["i",553],["l",237],["e",401],["r",173],["ENTER",540],["l",5301],["a",371],["k",552],["e",751],["ENTER",663],["s",1780],["h",642],["a",284],["c",380],["k",543],["ENTER",583],["c",1665],["a",274],["b",792],["i",459],["n",285],["ENTER",349],["d",2012],["o",1045],["r",471]],"recall_words":["herring","porsche","condominium","castle","trailer","lake","shack","cabin","dor"],"recall_word_response_times":[2460,2757,1743,1803,1940,5301,1780,1665,2012,0],"category_target":"","category_target_string":"","trial_type":"free-recall","trial_index":22,"time_elapsed":708648,"internal_node_id":"0.0-22.0","PROLIFIC ID":"67d6ddf3e159eeccf998a6fb","data_path":"experiments/block_cat/block_cat.h5","stimuli_path":"experiments/block_cat/assets/cuefr_pool.txt","category_path":"experiments/block_cat/assets/cuefr_labels.txt","subjectId":0},{"trial_type":"call-function","trial_index":23,"time_elapsed":708649,"internal_node_id":"0.0-23.0","PROLIFIC ID":"67d6ddf3e159eeccf998a6fb","data_path":"experiments/block_cat/block_cat.h5","stimuli_path":"experiments/block_cat/assets/cuefr_pool.txt","category_path":"experiments/block_cat/assets/cuefr_labels.txt","subjectId":0},{"view_history":[{"page_index":0,"viewing_time":344}],"rt":345,"trial_index":24,"trial_count":15,"message":"<p >When you're ready to proceed, press Next.</p>","trial_type":"instructions","time_elapsed":708995,"internal_node_id":"0.0-24.0","PROLIFIC ID":"67d6ddf3e159eeccf998a6fb","data_path":"experiments/block_cat/block_cat.h5","stimuli_path":"experiments/block_cat/assets/cuefr_pool.txt","category_path":"experiments/block_cat/assets/cuefr_labels.txt","subjectId":0},{"trial_type":"call-function","trial_index":25,"time_elapsed":708996,"internal_node_id":"0.0-25.0","PROLIFIC ID":"67d6ddf3e159eeccf998a6fb","data_path":"experiments/block_cat/block_cat.h5","stimuli_path":"experiments/block_cat/assets/cuefr_pool.txt","category_path":"experiments/block_cat/assets/cuefr_labels.txt","subjectId":0},{"load_time":725018.7999999523,"fixation_display_time":725018.7999999523,"trial_type":"fixation","trial_index":26,"time_elapsed":710011,"internal_node_id":"0.0-26.0","PROLIFIC ID":"67d6ddf3e159eeccf998a6fb","data_path":"experiments/block_cat/block_cat.h5","stimuli_path":"experiments/block_cat/assets/cuefr_pool.txt","category_path":"experiments/block_cat/assets/cuefr_labels.txt","subjectId":0},{"load_time":726036.0999999642,"word_display_times":[726036.1999999881,729061.5,732074.6999999881,735088.5999999642,738109.2999999523,741125.0999999642,744149.0999999642,747160.1999999881,750180.6999999881,753195.5999999642,756198.5,759220.7999999523,762239.1999999881,765258.1999999881,768276.0999999642],"word_list":["PAPAYA","GOLF","ITALY","MOOSE","ELEPHANT","SHEEP","MAROON","REDWOOD","COCKROACH","TURTLE","ZEBRA","MOUSE","CLARINET","WHISK","BEETS"],"category_list":["FRUIT","SPORTS","COUNTRIES","FOUR-FOOTED ANIMALS","FOUR-FOOTED ANIMALS","FOUR-FOOTED ANIMALS","COLORS","TREES","INSECTS","FOUR-FOOTED ANIMALS","FOUR-FOOTED ANIMALS","FOUR-FOOTED ANIMALS","INSTRUMENTS","KITCHEN TOOLS","VEGETABLES"],"trial_type":"item-presentation","trial_index":27,"time_elapsed":755267,"internal_node_id":"0.0-27.0","PROLIFIC ID":"67d6ddf3e159eeccf998a6fb","data_path":"experiments/block_cat/block_cat.h5","stimuli_path":"experiments/block_cat/assets/cuefr_pool.txt","category_path":"experiments/block_cat/assets/cuefr_labels.txt","subjectId":0},{"load_time":771295.7999999523,"recall_display_time":771296.0999999642,"category_cue":"FOUR-FOOTED ANIMALS","recall_responses":[["m",6810],["o",425],["u",279],["d",471],["e",192],["backspace",893],["backspace",152]],"recall_words":["mou"],"recall_word_response_times":[6810,0],"category_target":238,"category_target_string":"ELEPHANT","trial_type":"free-recall","trial_index":28,"time_elapsed":765288,"internal_node_id":"0.0-28.0","PROLIFIC ID":"67d6ddf3e159eeccf998a6fb","data_path":"experiments/block_cat/block_cat.h5","stimuli_path":"experiments/block_cat/assets/cuefr_pool.txt","category_path":"experiments/block_cat/assets/cuefr_labels.txt","subjectId":0},{"load_time":781317.7999999523,"recall_display_time":781318,"category_cue":"","recall_responses":[["d",176],["e",157],["backspace",1178],["backspace",451],["m",903],["o",294],["u",260],["s",644],["e",192],["ENTER",618],["x",1763],["backspace",924],["z",532],["e",284],["b",534],["r",278],["a",259],["ENTER",476],["t",1839],["u",237],["r",512],["t",163],["l",553],["e",360],["ENTER",643],["c",1951],["o",994],["c",595],["k",409],["r",503],["o",603],["a",1196],["c",462],["h",420],["ENTER",624],["r",1717],["e",243],["d",217],["w",294],["o",564],["o",147],["d",375],["ENTER",450],["m",1991],["a",349],["r",522],["o",644],["o",130],["n",311],["ENTER",430],["s",1671],["h",604],["e",320],["e",142],["p",470],["ENTER",380],["m",3290],["o",258],["o",142],["s",380],["e",182],["ENTER",648],["i",1661],["t",344],["a",299],["l",532],["y",300],["ENTER",581],["g",1712],["o",573],["l",199],["f",461],["ENTER",404],["g",2670]],"recall_words":["mouse","zebra","turtle","cockroach","redwood","maroon","sheep","moose","italy","golf","g"],"recall_word_response_times":[176,1763,1839,1951,1717,1991,1671,3290,1661,1712,2670,0],"category_target":"","category_target_string":"","trial_type":"free-recall","trial_index":29,"time_elapsed":815309,"internal_node_id":"0.0-29.0","PROLIFIC ID":"67d6ddf3e159eeccf998a6fb","data_path":"experiments/block_cat/block_cat.h5","stimuli_path":"experiments/block_cat/assets/cuefr_pool.txt","category_path":"experiments/block_cat/assets/cuefr_labels.txt","subjectId":0},{"trial_type":"call-function","trial_index":30,"time_elapsed":815310,"internal_node_id":"0.0-30.0","PROLIFIC ID":"67d6ddf3e159eeccf998a6fb","data_path":"experiments/block_cat/block_cat.h5","stimuli_path":"experiments/block_cat/assets/cuefr_pool.txt","category_path":"experiments/block_cat/assets/cuefr_labels.txt","subjectId":0},{"view_history":[{"page_index":0,"viewing_time":11896}],"rt":11896,"trial_index":31,"trial_count":15,"message":"<p >When you're ready to proceed, press Next.</p>","trial_type":"instructions","time_elapsed":827208,"internal_node_id":"0.0-31.0","PROLIFIC ID":"67d6ddf3e159eeccf998a6fb","data_path":"experiments/block_cat/block_cat.h5","stimuli_path":"experiments/block_cat/assets/cuefr_pool.txt","category_path":"experiments/block_cat/assets/cuefr_labels.txt","subjectId":0},{"trial_type":"call-function","trial_index":32,"time_elapsed":827208,"internal_node_id":"0.0-32.0","PROLIFIC ID":"67d6ddf3e159eeccf998a6fb","data_path":"experiments/block_cat/block_cat.h5","stimuli_path":"experiments/block_cat/assets/cuefr_pool.txt","category_path":"experiments/block_cat/assets/cuefr_labels.txt","subjectId":0},{"load_time":843230.6999999881,"fixation_display_time":843230.6999999881,"trial_type":"fixation","trial_index":33,"time_elapsed":828223,"internal_node_id":"0.0-33.0","PROLIFIC ID":"67d6ddf3e159eeccf998a6fb","data_path":"experiments/block_cat/block_cat.h5","stimuli_path":"experiments/block_cat/assets/cuefr_pool.txt","category_path":"experiments/block_cat/assets/cuefr_labels.txt","subjectId":0},{"load_time":844248.5,"word_display_times":[844248.5,847252.8999999762,850274.3999999762,853280.6999999881,856307.0999999642,859314.6999999881,862324.6999999881,865347.5,868363,871380.3999999762,874398.6999999881,877421.7999999523,880434.6999999881,883457.2999999523,886488.5],"word_list":["CURRY","STUDENT","NYLON","DAFFODIL","ROSE","LILY","END TABLE","GENERAL","ANKLE","COLUMBINE","SUNFLOWER","LILAC","ELEVATOR","T-SHIRT","TIDAL WAVE"],"category_list":["SEASONINGS","OCCUPATIONS","FABRICS","FLOWERS","FLOWERS","FLOWERS","FURNITURE","MILITARY TITLES","BODY PARTS","FLOWERS","FLOWERS","FLOWERS","BUILDING PARTS","CLOTHES","WEATHER TERMS"],"trial_type":"item-presentation","trial_index":34,"time_elapsed":873487,"internal_node_id":"0.0-34.0","PROLIFIC ID":"67d6ddf3e159eeccf998a6fb","data_path":"experiments/block_cat/block_cat.h5","stimuli_path":"experiments/block_cat/assets/cuefr_pool.txt","category_path":"experiments/block_cat/assets/cuefr_labels.txt","subjectId":0},{"load_time":889517.2999999523,"recall_display_time":889517.5,"category_cue":"","recall_responses":[["t",5985],["i",430],["d",422],["a",253],["l",460],[" ",238],["w",366],["a",208],["v",471],["e",314],["ENTER",742]],"recall_words":["tidal wave"],"recall_word_response_times":[5985],"category_target":0,"category_target_string":"","trial_type":"free-recall","trial_index":35,"time_elapsed":883387,"internal_node_id":"0.0-35.0","PROLIFIC ID":"67d6ddf3e159eeccf998a6fb","data_path":"experiments/block_cat/block_cat.h5","stimuli_path":"experiments/block_cat/assets/cuefr_pool.txt","category_path":"experiments/block_cat/assets/cuefr_labels.txt","subjectId":0},{"load_time":899412,"recall_display_time":899412.0999999642,"category_cue":"","recall_responses":[["t",1966],["s",1690],["backspace",1812],["backspace",3879],["e",1538],["l",482],["e",400],["v",412],["a",304],["t",511],["o",451],["r",380],["ENTER",623],["l",1705],["i",215],["l",203],["a",472],["c",330],["ENTER",612],["s",1849],["u",471],["n",253],["f",350],["l",442],["o",213],["w",531],["e",229],["r",172],["ENTER",1155],["c",1559],["o",671],["l",223],["u",259],["m",243],["b",258],["i",416],["n",229],["e",338],["ENTER",777],["a",1679],["n",590],["k",233],["l",248],["e",564],["ENTER",479],["g",1945],["e",280],["n",431],["e",313],["r",188],["a",264],["l",573],["ENTER",268],["l",3878],["i",204],["l",213],["i",218],["backspace",944],["y",665],["ENTER",723],["r",2067],["o",512],["s",436],["e",198],["ENTER",612],["c",1006],["u",463],["r",379],["r",152],["y",223]],"recall_words":["elevator","lilac","sunflower","columbine","ankle","general","lily","rose","curry"],"recall_word_response_times":[1966,1705,1849,1559,1679,1945,3878,2067,1006,0],"category_target":"","category_target_string":"","trial_type":"free-recall","trial_index":36,"time_elapsed":933393,"internal_node_id":"0.0-36.0","PROLIFIC ID":"67d6ddf3e159eeccf998a6fb","data_path":"experiments/block_cat/block_cat.h5","stimuli_path":"experiments/block_cat/assets/cuefr_pool.txt","category_path":"experiments/block_cat/assets/cuefr_labels.txt","subjectId":0},{"trial_type":"call-function","trial_index":37,"time_elapsed":933394,"internal_node_id":"0.0-37.0","PROLIFIC ID":"67d6ddf3e159eeccf998a6fb","data_path":"experiments/block_cat/block_cat.h5","stimuli_path":"experiments/block_cat/assets/cuefr_pool.txt","category_path":"experiments/block_cat/assets/cuefr_labels.txt","subjectId":0},{"view_history":[{"page_index":0,"viewing_time":45825}],"rt":45825,"trial_index":38,"trial_count":15,"message":"<p >When you're ready to proceed, press Next.</p>","trial_type":"instructions","time_elapsed":979220,"internal_node_id":"0.0-38.0","PROLIFIC ID":"67d6ddf3e159eeccf998a6fb","data_path":"experiments/block_cat/block_cat.h5","stimuli_path":"experiments/block_cat/assets/cuefr_pool.txt","category_path":"experiments/block_cat/assets/cuefr_labels.txt","subjectId":0},{"trial_type":"call-function","trial_index":39,"time_elapsed":979221,"internal_node_id":"0.0-39.0","PROLIFIC ID":"67d6ddf3e159eeccf998a6fb","data_path":"experiments/block_cat/block_cat.h5","stimuli_path":"experiments/block_cat/assets/cuefr_pool.txt","category_path":"experiments/block_cat/assets/cuefr_labels.txt","subjectId":0},{"load_time":995243.3999999762,"fixation_display_time":995243.3999999762,"trial_type":"fixation","trial_index":40,"time_elapsed":980234,"internal_node_id":"0.0-40.0","PROLIFIC ID":"67d6ddf3e159eeccf998a6fb","data_path":"experiments/block_cat/block_cat.h5","stimuli_path":"experiments/block_cat/assets/cuefr_pool.txt","category_path":"experiments/block_cat/assets/cuefr_labels.txt","subjectId":0},{"load_time":996260,"word_display_times":[996260,999277.0999999642,1002295.2999999523,1005317.3999999762,1008336.3999999762,1011342.1999999881,1014355.8999999762,1017372,1020389.5999999642,1023400.5999999642,1026407.5999999642,1029434.3999999762,1032450.0999999642,1035466.1999999881,1038482.8999999762],"word_list":["KOOL AID","SCARLET","IGLOO","FINCH","FALCON","PENGUIN","HORNET","GRAPEFRUIT","NITROGEN","CHICKEN","PARAKEET","DOVE","DOGWOOD","TUGBOAT","GOLDFISH"],"category_list":["BEVERAGES","COLORS","DWELLINGS","BIRDS","BIRDS","BIRDS","INSECTS","FRUIT","ELEMENTS","BIRDS","BIRDS","BIRDS","TREES","SHIPS","FISH"],"trial_type":"item-presentation","trial_index":41,"time_elapsed":1025479,"internal_node_id":"0.0-41.0","PROLIFIC ID":"67d6ddf3e159eeccf998a6fb","data_path":"experiments/block_cat/block_cat.h5","stimuli_path":"experiments/block_cat/assets/cuefr_pool.txt","category_path":"experiments/block_cat/assets/cuefr_labels.txt","subjectId":0},{"load_time":1041508.5,"recall_display_time":1041508.6999999881,"category_cue":"FISH","recall_responses":[["g",4901],["o",491],["l",198],["d",583],["f",491],["i",275],["s",412],["h",349],["ENTER",953]],"recall_words":["goldfish"],"recall_word_response_times":[4901],"category_target":222,"category_target_string":"GOLDFISH","trial_type":"free-recall","trial_index":42,"time_elapsed":1034142,"internal_node_id":"0.0-42.0","PROLIFIC ID":"67d6ddf3e159eeccf998a6fb","data_path":"experiments/block_cat/block_cat.h5","stimuli_path":"experiments/block_cat/assets/cuefr_pool.txt","category_path":"experiments/block_cat/assets/cuefr_labels.txt","subjectId":0},{"load_time":1050166.3999999762,"recall_display_time":1050166.3999999762,"category_cue":"","recall_responses":[["g",3445],["backspace",716],["d",625],["o",298],["v",595],["e",309],["ENTER",664],["t",544],["u",264],["g",462],["b",429],["o",403],["a",391],["t",481],["ENTER",786],["g",2332],["backspace",573],["d",402],["o",532],["g",615],["w",441],["o",994],["o",142],["d",463],["ENTER",631],["p",3255],["a",451],["r",345],["a",258],["k",904],["e",345],["e",136],["t",233],["ENTER",675],["c",1738],["h",284],["o",440],["backspace",834],["i",471],["c",533],["k",461],["e",376],["n",430],["ENTER",391],["n",1640],["i",310],["t",380],["r",365],["o",579],["g",365],["r",308],["backspace",833],["e",447],["n",577],["ENTER",1411],["h",1626],["o",344],["r",392],["n",553],["e",330],["t",264],["ENTER",543],["p",1879],["e",492],["n",503],["g",349],["u",294],["i",422],["n",299],["ENTER",603],["f",1921],["a",294],["l",411],["c",421],["o",451]],"recall_words":["dove","tugboat","dogwood","parakeet","chicken","nitrogen","hornet","penguin","falco"],"recall_word_response_times":[3445,544,2332,3255,1738,1640,1626,1879,1921,0],"category_target":"","category_target_string":"","trial_type":"free-recall","trial_index":43,"time_elapsed":1084149,"internal_node_id":"0.0-43.0","PROLIFIC ID":"67d6ddf3e159eeccf998a6fb","data_path":"experiments/block_cat/block_cat.h5","stimuli_path":"experiments/block_cat/assets/cuefr_pool.txt","category_path":"experiments/block_cat/assets/cuefr_labels.txt","subjectId":0},{"trial_type":"call-function","trial_index":44,"time_elapsed":1084149,"internal_node_id":"0.0-44.0","PROLIFIC ID":"67d6ddf3e159eeccf998a6fb","data_path":"experiments/block_cat/block_cat.h5","stimuli_path":"experiments/block_cat/assets/cuefr_pool.txt","category_path":"experiments/block_cat/assets/cuefr_labels.txt","subjectId":0},{"view_history":[{"page_index":0,"viewing_time":14709}],"rt":14709,"trial_index":45,"trial_count":15,"message":"<p >When you're ready to proceed, press Next.</p>","trial_type":"instructions","time_elapsed":1098860,"internal_node_id":"0.0-45.0","PROLIFIC ID":"67d6ddf3e159eeccf998a6fb","data_path":"experiments/block_cat/block_cat.h5","stimuli_path":"experiments/block_cat/assets/cuefr_pool.txt","category_path":"experiments/block_cat/assets/cuefr_labels.txt","subjectId":0},{"trial_type":"call-function","trial_index":46,"time_elapsed":1098861,"internal_node_id":"0.0-46.0","PROLIFIC ID":"67d6ddf3e159eeccf998a6fb","data_path":"experiments/block_cat/block_cat.h5","stimuli_path":"experiments/block_cat/assets/cuefr_pool.txt","category_path":"experiments/block_cat/assets/cuefr_labels.txt","subjectId":0},{"load_time":1114883.2999999523,"fixation_display_time":1114883.2999999523,"trial_type":"fixation","trial_index":47,"time_elapsed":1099866,"internal_node_id":"0.0-47.0","PROLIFIC ID":"67d6ddf3e159eeccf998a6fb","data_path":"experiments/block_cat/block_cat.h5","stimuli_path":"experiments/block_cat/assets/cuefr_pool.txt","category_path":"experiments/block_cat/assets/cuefr_labels.txt","subjectId":0},{"load_time":1115892.3999999762,"word_display_times":[1115892.5,1118919.7999999523,1121935.2999999523,1124956.8999999762,1127960.7999999523,1130967.8999999762,1133989,1137012.0999999642,1140014.2999999523,1143039.699999988,1146047.199999988,1149060.5999999642,1152069.5999999642,1155086.8999999762,1158106],"word_list":["CLOUDS","PHILADELPHIA","MAZDA","LIZARD","WOLF","RABBIT","SCREW","NECK","ADMIRAL","GIRAFFE","GOAT","RAT","LINEN","ENTRANCE","TURNIP"],"category_list":["WEATHER TERMS","CITIES","CAR MODELS","FOUR-FOOTED ANIMALS","FOUR-FOOTED ANIMALS","FOUR-FOOTED ANIMALS","CARPENTRY TOOLS","BODY PARTS","MILITARY TITLES","FOUR-FOOTED ANIMALS","FOUR-FOOTED ANIMALS","FOUR-FOOTED ANIMALS","FABRICS","BUILDING PARTS","VEGETABLES"],"trial_type":"item-presentation","trial_index":48,"time_elapsed":1145099,"internal_node_id":"0.0-48.0","PROLIFIC ID":"67d6ddf3e159eeccf998a6fb","data_path":"experiments/block_cat/block_cat.h5","stimuli_path":"experiments/block_cat/assets/cuefr_pool.txt","category_path":"experiments/block_cat/assets/cuefr_labels.txt","subjectId":0},{"load_time":1161128.2999999523,"recall_display_time":1161128.3999999762,"category_cue":"FOUR-FOOTED ANIMALS","recall_responses":[["r",4505],["a",278],["t",379],["ENTER",664]],"recall_words":["rat"],"recall_word_response_times":[4505],"category_target":255,"category_target_string":"WOLF","trial_type":"free-recall","trial_index":49,"time_elapsed":1150934,"internal_node_id":"0.0-49.0","PROLIFIC ID":"67d6ddf3e159eeccf998a6fb","data_path":"experiments/block_cat/block_cat.h5","stimuli_path":"experiments/block_cat/assets/cuefr_pool.txt","category_path":"experiments/block_cat/assets/cuefr_labels.txt","subjectId":0},{"load_time":1166957.699999988,"recall_display_time":1166957.699999988,"category_cue":"","recall_responses":[["g",1979],["o",410],["a",503],["t",436],["ENTER",658],["t",2276],["u",229],["r",867],["n",462],["i",299],["p",294],["ENTER",578],["e",2002],["n",501],["t",295],["r",309],["a",274],["n",473],["c",469],["e",229],["ENTER",445],["l",1718],["i",223],["n",522],["r",330],["backspace",725],["e",533],["n",650],["ENTER",1359],["g",2600],["o",437],["a",431],["t",370],["ENTER",602],["g",1621],["i",598],["r",376],["r",147],["a",304],["f",300],["f",1147],["e",309],["ENTER",663],["a",1529],["d",319],["m",594],["i",254],["r",380],["a",263],["l",600],["ENTER",592],["n",936],["e",344],["c",349],["k",523],["ENTER",340],["s",1651],["c",512],["r",482],["e",203],["w",210],["ENTER",561],["r",2134],["a",290],["b",603],["b",152],["i",402],["t",264],["ENTER",598],["w",1752],["o",625],["l",197],["f",665],["ENTER",389]],"recall_words":["goat","turnip","entrance","linen","goat","girraffe","admiral","neck","screw","rabbit","wolf"],"recall_word_response_times":[1979,2276,2002,1718,2600,1621,1529,936,1651,2134,1752],"category_target":"","category_target_string":"","trial_type":"free-recall","trial_index":50,"time_elapsed":1200939,"internal_node_id":"0.0-50.0","PROLIFIC ID":"67d6ddf3e159eeccf998a6fb","data_path":"experiments/block_cat/block_cat.h5","stimuli_path":"experiments/block_cat/assets/cuefr_pool.txt","category_path":"experiments/block_cat/assets/cuefr_labels.txt","subjectId":0},{"trial_type":"call-function","trial_index":51,"time_elapsed":1200939,"internal_node_id":"0.0-51.0","PROLIFIC ID":"67d6ddf3e159eeccf998a6fb","data_path":"experiments/block_cat/block_cat.h5","stimuli_path":"experiments/block_cat/assets/cuefr_pool.txt","category_path":"experiments/block_cat/assets/cuefr_labels.txt","subjectId":0},{"view_history":[{"page_index":0,"viewing_time":18946}],"rt":18946,"trial_index":52,"trial_count":15,"message":"<p >When you're ready to proceed, press Next.</p>","trial_type":"instructions","time_elapsed":1219886,"internal_node_id":"0.0-52.0","PROLIFIC ID":"67d6ddf3e159eeccf998a6fb","data_path":"experiments/block_cat/block_cat.h5","stimuli_path":"experiments/block_cat/assets/cuefr_pool.txt","category_path":"experiments/block_cat/assets/cuefr_labels.txt","subjectId":0},{"trial_type":"call-function","trial_index":53,"time_elapsed":1219887,"internal_node_id":"0.0-53.0","PROLIFIC ID":"67d6ddf3e159eeccf998a6fb","data_path":"experiments/block_cat/block_cat.h5","stimuli_path":"experiments/block_cat/assets/cuefr_pool.txt","category_path":"experiments/block_cat/assets/cuefr_labels.txt","subjectId":0},{"load_time":1235909.199999988,"fixation_display_time":1235909.199999988,"trial_type":"fixation","trial_index":54,"time_elapsed":1220893,"internal_node_id":"0.0-54.0","PROLIFIC ID":"67d6ddf3e159eeccf998a6fb","data_path":"experiments/block_cat/block_cat.h5","stimuli_path":"experiments/block_cat/assets/cuefr_pool.txt","category_path":"experiments/block_cat/assets/cuefr_labels.txt","subjectId":0},{"load_time":1236920.3999999762,"word_display_times":[1236920.3999999762,1239949.5,1242960.7999999523,1245965.0999999642,1248980.8999999762,1251990.7999999523,1255006.0999999642,1258030.5999999642,1261052.5999999642,1264058.7999999523,1267079.3999999762,1270097.2999999523,1273128.2999999523,1276130.8999999762,1279161.2999999523],"word_list":["GREECE","POT","TEA","GOLDFISH","SWORDFISH","HERRING","LAKE","BELT","CONDOMINIUM","MARLIN","HALIBUT","COD","EVERGREEN","OKLAHOMA","THYME"],"category_list":["COUNTRIES","KITCHEN TOOLS","BEVERAGES","FISH","FISH","FISH","GEOGRAPHY TERMS","CLOTHES","DWELLINGS","FISH","FISH","FISH","TREES","STATES","SEASONINGS"],"trial_type":"item-presentation","trial_index":55,"time_elapsed":1266154,"internal_node_id":"0.0-55.0","PROLIFIC ID":"67d6ddf3e159eeccf998a6fb","data_path":"experiments/block_cat/block_cat.h5","stimuli_path":"experiments/block_cat/assets/cuefr_pool.txt","category_path":"experiments/block_cat/assets/cuefr_labels.txt","subjectId":0},{"load_time":1282182.8999999762,"recall_display_time":1282183.0999999642,"category_cue":"CLOTHES","recall_responses":[["b",9651]],"recall_words":["b"],"recall_word_response_times":[9651,0],"category_target":111,"category_target_string":"BELT","trial_type":"free-recall","trial_index":56,"time_elapsed":1276168,"internal_node_id":"0.0-56.0","PROLIFIC ID":"67d6ddf3e159eeccf998a6fb","data_path":"experiments/block_cat/block_cat.h5","stimuli_path":"experiments/block_cat/assets/cuefr_pool.txt","category_path":"experiments/block_cat/assets/cuefr_labels.txt","subjectId":0},{"load_time":1292197.0999999642,"recall_display_time":1292197.199999988,"category_cue":"","recall_responses":[["e",540],["l",513],["t",766],["backspace",852],["backspace",162],["backspace",229],["b",1580],["e",400],["l",574],["t",898],["ENTER",680],["l",1621],["a",381],["k",522],["e",345],["ENTER",680],["h",1960],["e",304],["r",238],["r",153],["i",460],["n",285],["g",401],["ENTER",572],["c",793],["o",575],["d",380],["ENTER",623],["s",1487],["w",224],["o",523],["r",432],["d",299],["f",309],["i",512],["s",634],["h",614],["ENTER",1516],["g",525],["o",491],["l",203],["d",1047],["f",299],["i",522],["s",595],["h",593],["ENTER",482],["t",1174],["e",335],["a",259],["ENTER",561],["p",2495],["o",243],["t",388],["ENTER",595],["g",1184],["r",284],["e",229],["e",130],["c",265],["e",197],["ENTER",685],["e",8626],["v",412],["e",299],["r",172],["g",604],["r",269],["e",192],["e",132],["n",584],["ENTER",429]],"recall_words":["belt","lake","herring","cod","swordfish","goldfish","tea","pot","greece","evergreen"],"recall_word_response_times":[540,1621,1960,793,1487,525,1174,2495,1184,8626],"category_target":"","category_target_string":"","trial_type":"free-recall","trial_index":57,"time_elapsed":1326188,"internal_node_id":"0.0-57.0","PROLIFIC ID":"67d6ddf3e159eeccf998a6fb","data_path":"experiments/block_cat/block_cat.h5","stimuli_path":"experiments/block_cat/assets/cuefr_pool.txt","category_path":"experiments/block_cat/assets/cuefr_labels.txt","subjectId":0},{"trial_type":"call-function","trial_index":58,"time_elapsed":1326189,"internal_node_id":"0.0-58.0","PROLIFIC ID":"67d6ddf3e159eeccf998a6fb","data_path":"experiments/block_cat/block_cat.h5","stimuli_path":"experiments/block_cat/assets/cuefr_pool.txt","category_path":"experiments/block_cat/assets/cuefr_labels.txt","subjectId":0},{"view_history":[{"page_index":0,"viewing_time":3598}],"rt":3598,"trial_index":59,"trial_count":15,"message":"<p >When you're ready to proceed, press Next.</p>","trial_type":"instructions","time_elapsed":1329788,"internal_node_id":"0.0-59.0","PROLIFIC ID":"67d6ddf3e159eeccf998a6fb","data_path":"experiments/block_cat/block_cat.h5","stimuli_path":"experiments/block_cat/assets/cuefr_pool.txt","category_path":"experiments/block_cat/assets/cuefr_labels.txt","subjectId":0},{"trial_type":"call-function","trial_index":60,"time_elapsed":1329789,"internal_node_id":"0.0-60.0","PROLIFIC ID":"67d6ddf3e159eeccf998a6fb","data_path":"experiments/block_cat/block_cat.h5","stimuli_path":"experiments/block_cat/assets/cuefr_pool.txt","category_path":"experiments/block_cat/assets/cuefr_labels.txt","subjectId":0},{"load_time":1345812.0999999642,"fixation_display_time":1345812.0999999642,"trial_type":"fixation","trial_index":61,"time_elapsed":1330805,"internal_node_id":"0.0-61.0","PROLIFIC ID":"67d6ddf3e159eeccf998a6fb","data_path":"experiments/block_cat/block_cat.h5","stimuli_path":"experiments/block_cat/assets/cuefr_pool.txt","category_path":"experiments/block_cat/assets/cuefr_labels.txt","subjectId":0},{"load_time":1346831,"word_display_times":[1346831,1349847.5999999642,1352865.5,1355883.2999999523,1358901.699999988,1361929.2999999523,1364949.5999999642,1367968.0999999642,1370984,1374001.0999999642,1377026.699999988,1380044.8999999762,1383066.699999988,1386079,1389094.3999999762],"word_list":["DENIM","OBOE","CHARTREUSE","ALUMINUM","CARBON","MERCURY","HAWK","GNAT","CHISEL","CHLORINE","IRON","SODIUM","WEB SITE","END TABLE","PHILADELPHIA"],"category_list":["FABRICS","INSTRUMENTS","COLORS","ELEMENTS","ELEMENTS","ELEMENTS","BIRDS","INSECTS","CARPENTRY TOOLS","ELEMENTS","ELEMENTS","ELEMENTS","READING MATERIALS","FURNITURE","CITIES"],"trial_type":"item-presentation","trial_index":62,"time_elapsed":1376087,"internal_node_id":"0.0-62.0","PROLIFIC ID":"67d6ddf3e159eeccf998a6fb","data_path":"experiments/block_cat/block_cat.h5","stimuli_path":"experiments/block_cat/assets/cuefr_pool.txt","category_path":"experiments/block_cat/assets/cuefr_labels.txt","subjectId":0},{"load_time":1392115.699999988,"recall_display_time":1392115.8999999762,"category_cue":"CITIES","recall_responses":[["p",4182],["h",460],["i",357],["l",269],["a",253],["d",441],["e",248],["l",333],["p",210],["h",674],["i",310],["a",213],["ENTER",613]],"recall_words":["philadelphia"],"recall_word_response_times":[4182],"category_target":104,"category_target_string":"PHILADELPHIA","trial_type":"free-recall","trial_index":63,"time_elapsed":1384662,"internal_node_id":"0.0-63.0","PROLIFIC ID":"67d6ddf3e159eeccf998a6fb","data_path":"experiments/block_cat/block_cat.h5","stimuli_path":"experiments/block_cat/assets/cuefr_pool.txt","category_path":"experiments/block_cat/assets/cuefr_labels.txt","subjectId":0},{"load_time":1400685.5999999642,"recall_display_time":1400685.5999999642,"category_cue":"","recall_responses":[["e",3466],["n",401],["d",595],[" ",217],["t",222],["a",264],["b",473],["l",320],["e",411],["ENTER",531],["w",2104],["e",203],["b",558],[" ",193],["s",274],["i",1071],["t",285],["e",319],["ENTER",1075],["s",1824],["o",482],["d",914],["i",462],["u",248],["m",243],["ENTER",411],["i",1509],["r",554],["o",521],["n",300],["ENTER",511],["c",1520],["h",345],["l",329],["o",233],["r",559],["i",365],["n",279],["e",381],["ENTER",486],["c",1546],["h",395],["i",259],["s",401],["e",193],["l",685],["ENTER",258],["g",2083],["n",264],["a",321],["t",349],["ENTER",583],["h",2002],["a",349],["w",223],["k",803],["ENTER",663],["m",1804],["e",381],["r",166],["c",265],["u",1188],["r",639],["y",365],["ENTER",1929],["c",1758],["a",274],["r",523],["b",472],["o",452],["n",329],["ENTER",552]],"recall_words":["end table","web site","sodium","iron","chlorine","chisel","gnat","hawk","mercury","carbon"],"recall_word_response_times":[3466,2104,1824,1509,1520,1546,2083,2002,1804,1758],"category_target":"","category_target_string":"","trial_type":"free-recall","trial_index":64,"time_elapsed":1434677,"internal_node_id":"0.0-64.0","PROLIFIC ID":"67d6ddf3e159eeccf998a6fb","data_path":"experiments/block_cat/block_cat.h5","stimuli_path":"experiments/block_cat/assets/cuefr_pool.txt","category_path":"experiments/block_cat/assets/cuefr_labels.txt","subjectId":0},{"trial_type":"call-function","trial_index":65,"time_elapsed":1434678,"internal_node_id":"0.0-65.0","PROLIFIC ID":"67d6ddf3e159eeccf998a6fb","data_path":"experiments/block_cat/block_cat.h5","stimuli_path":"experiments/block_cat/assets/cuefr_pool.txt","category_path":"experiments/block_cat/assets/cuefr_labels.txt","subjectId":0},{"view_history":[{"page_index":0,"viewing_time":17548}],"rt":17548,"trial_index":66,"trial_count":15,"message":"<p >When you're ready to proceed, press Next.</p>","trial_type":"instructions","time_elapsed":1452228,"internal_node_id":"0.0-66.0","PROLIFIC ID":"67d6ddf3e159eeccf998a6fb","data_path":"experiments/block_cat/block_cat.h5","stimuli_path":"experiments/block_cat/assets/cuefr_pool.txt","category_path":"experiments/block_cat/assets/cuefr_labels.txt","subjectId":0},{"trial_type":"call-function","trial_index":67,"time_elapsed":1452229,"internal_node_id":"0.0-67.0","PROLIFIC ID":"67d6ddf3e159eeccf998a6fb","data_path":"experiments/block_cat/block_cat.h5","stimuli_path":"experiments/block_cat/assets/cuefr_pool.txt","category_path":"experiments/block_cat/assets/cuefr_labels.txt","subjectId":0},{"load_time":1468251.2999999523,"fixation_display_time":1468251.2999999523,"trial_type":"fixation","trial_index":68,"time_elapsed":1453233,"internal_node_id":"0.0-68.0","PROLIFIC ID":"67d6ddf3e159eeccf998a6fb","data_path":"experiments/block_cat/block_cat.h5","stimuli_path":"experiments/block_cat/assets/cuefr_pool.txt","category_path":"experiments/block_cat/assets/cuefr_labels.txt","subjectId":0},{"load_time":1469258.3999999762,"word_display_times":[1469258.3999999762,1472272.699999988,1475278.0999999642,1478286.199999988,1481301.7999999523,1484315.8999999762,1487325.5,1490347.3999999762,1493362.5999999642,1496380.3999999762,1499400.2999999523,1502408.0999999642,1505434.3999999762,1508450.699999988,1511475.5],"word_list":["ATHLETE","HEMLOCK","HAMSTER","WHISK","STRAINER","MIXER","RIVER","PERU","TEA","SKILLET","BLENDER","CUTTING BOARD","THYME","VOLKSWAGEN","SKIING"],"category_list":["OCCUPATIONS","TREES","FOUR-FOOTED ANIMALS","KITCHEN TOOLS","KITCHEN TOOLS","KITCHEN TOOLS","GEOGRAPHY TERMS","COUNTRIES","BEVERAGES","KITCHEN TOOLS","KITCHEN TOOLS","KITCHEN TOOLS","SEASONINGS","CAR MODELS","SPORTS"],"trial_type":"item-presentation","trial_index":69,"time_elapsed":1498469,"internal_node_id":"0.0-69.0","PROLIFIC ID":"67d6ddf3e159eeccf998a6fb","data_path":"experiments/block_cat/block_cat.h5","stimuli_path":"experiments/block_cat/assets/cuefr_pool.txt","category_path":"experiments/block_cat/assets/cuefr_labels.txt","subjectId":0},{"load_time":1514499.199999988,"recall_display_time":1514499.2999999523,"category_cue":"","recall_responses":[["s",3821],["k",512],["i",203],["i",127],["n",274],["g",269],["ENTER",643]],"recall_words":["skiing"],"recall_word_response_times":[3821],"category_target":0,"category_target_string":"","trial_type":"free-recall","trial_index":70,"time_elapsed":1504328,"internal_node_id":"0.0-70.0","PROLIFIC ID":"67d6ddf3e159eeccf998a6fb","data_path":"experiments/block_cat/block_cat.h5","stimuli_path":"experiments/block_cat/assets/cuefr_pool.txt","category_path":"experiments/block_cat/assets/cuefr_labels.txt","subjectId":0},{"load_time":1520352.2999999523,"recall_display_time":1520352.2999999523,"category_cue":"","recall_responses":[["t",4464],["h",223],["y",207],["m",416],["e",360],["ENTER",842],["t",895],["e",335],["a",269],["ENTER",1024],["c",2266],["u",522],["t",289],["t",132],["i",350],["n",274],["g",247],[" ",223],["b",168],["o",406],["a",680],["r",274],["s",269],["backspace",954],["d",442],["ENTER",674],["b",1641],["l",389],["e",813],["n",385],["d",421],["e",208],["r",172],["ENTER",736],["s",1747],["k",746],["i",167],["l",234],["l",132],["e",628],["t",234],["ENTER",592],["p",3338],["e",715],["r",208],["u",786],["ENTER",675],["r",2230],["i",503],["v",705],["e",279],["r",203],["ENTER",741],["m",1550],["i",233],["x",863],["e",315],["r",198],["ENTER",754],["s",2596],["t",422],["r",219],["a",274],["i",711],["n",294],["e",380],["r",193],["ENTER",689],["w",2780],["h",574]],"recall_words":["thyme","tea","cutting board","blender","skillet","peru","river","mixer","strainer","wh"],"recall_word_response_times":[4464,895,2266,1641,1747,3338,2230,1550,2596,2780,0],"category_target":"","category_target_string":"","trial_type":"free-recall","trial_index":71,"time_elapsed":1554337,"internal_node_id":"0.0-71.0","PROLIFIC ID":"67d6ddf3e159eeccf998a6fb","data_path":"experiments/block_cat/block_cat.h5","stimuli_path":"experiments/block_cat/assets/cuefr_pool.txt","category_path":"experiments/block_cat/assets/cuefr_labels.txt","subjectId":0},{"trial_type":"call-function","trial_index":72,"time_elapsed":1554338,"internal_node_id":"0.0-72.0","PROLIFIC ID":"67d6ddf3e159eeccf998a6fb","data_path":"experiments/block_cat/block_cat.h5","stimuli_path":"experiments/block_cat/assets/cuefr_pool.txt","category_path":"experiments/block_cat/assets/cuefr_labels.txt","subjectId":0},{"view_history":[{"page_index":0,"viewing_time":11654}],"rt":11654,"trial_index":73,"trial_count":15,"message":"<p >When you're ready to proceed, press Next.</p>","trial_type":"instructions","time_elapsed":1565993,"internal_node_id":"0.0-73.0","PROLIFIC ID":"67d6ddf3e159eeccf998a6fb","data_path":"experiments/block_cat/block_cat.h5","stimuli_path":"experiments/block_cat/assets/cuefr_pool.txt","category_path":"experiments/block_cat/assets/cuefr_labels.txt","subjectId":0},{"trial_type":"call-function","trial_index":74,"time_elapsed":1565994,"internal_node_id":"0.0-74.0","PROLIFIC ID":"67d6ddf3e159eeccf998a6fb","data_path":"experiments/block_cat/block_cat.h5","stimuli_path":"experiments/block_cat/assets/cuefr_pool.txt","category_path":"experiments/block_cat/assets/cuefr_labels.txt","subjectId":0},{"load_time":1582016.199999988,"fixation_display_time":1582016.199999988,"trial_type":"fixation","trial_index":75,"time_elapsed":1567005,"internal_node_id":"0.0-75.0","PROLIFIC ID":"67d6ddf3e159eeccf998a6fb","data_path":"experiments/block_cat/block_cat.h5","stimuli_path":"experiments/block_cat/assets/cuefr_pool.txt","category_path":"experiments/block_cat/assets/cuefr_labels.txt","subjectId":0},{"load_time":1583030.8999999762,"word_display_times":[1583030.8999999762,1586042.8999999762,1589062,1592066.2999999523,1595083.3999999762,1598095.5,1601105.699999988,1604120.5999999642,1607145.199999988,1610165.5999999642,1613174.699999988,1616189.5999999642,1619199.8999999762,1622218.2999999523,1625234.8999999762],"word_list":["PEAR","COMIC BOOK","GNAT","NEW HAMPSHIRE","OKLAHOMA","KANSAS","SEATTLE","SATIN","SUNFLOWER","MISSOURI","IOWA","INDIANA","SNAPPER","VEST","BANJO"],"category_list":["FRUIT","READING MATERIALS","INSECTS","STATES","STATES","STATES","CITIES","FABRICS","FLOWERS","STATES","STATES","STATES","FISH","CLOTHES","INSTRUMENTS"],"trial_type":"item-presentation","trial_index":76,"time_elapsed":1612222,"internal_node_id":"0.0-76.0","PROLIFIC ID":"67d6ddf3e159eeccf998a6fb","data_path":"experiments/block_cat/block_cat.h5","stimuli_path":"experiments/block_cat/assets/cuefr_pool.txt","category_path":"experiments/block_cat/assets/cuefr_labels.txt","subjectId":0},{"load_time":1628250.199999988,"recall_display_time":1628250.3999999762,"category_cue":"","recall_responses":[["b",1963],["a",360],["n",542],["j",270],["o",655],["ENTER",623]],"recall_words":["banjo"],"recall_word_response_times":[1963],"category_target":0,"category_target_string":"","trial_type":"free-recall","trial_index":77,"time_elapsed":1616643,"internal_node_id":"0.0-77.0","PROLIFIC ID":"67d6ddf3e159eeccf998a6fb","data_path":"experiments/block_cat/block_cat.h5","stimuli_path":"experiments/block_cat/assets/cuefr_pool.txt","category_path":"experiments/block_cat/assets/cuefr_labels.txt","subjectId":0},{"load_time":1632666.5,"recall_display_time":1632666.5999999642,"category_cue":"","recall_responses":[["v",3789],["e",323],["s",239],["t",402],["ENTER",481],["s",1795],["a",227],["t",502],["i",909],["n",279],["ENTER",481],["s",915],["n",798],["a",340],["p",482],["p",132],["e",482],["r",172],["ENTER",873],["i",733],["n",263],["d",432],["i",380],["a",375],["n",402],["a",339],["ENTER",592],["i",925],["o",212],["w",874],["a",223],["ENTER",709],["m",1118],["i",268],["s",416],["s",138],["o",416],["u",349],["r",574],["i",700],["ENTER",953],["s",1067],["u",584],["n",264],["f",441],["l",492],["o",218],["e",665],["r",1345],["ENTER",837],["s",986],["a",218],["t",458],["i",527],["n",1529],["ENTER",531],["s",1139],["e",172],["a",228],["t",365],["t",148],["l",451],["e",365],["ENTER",822],["k",1288],["a",363],["n",552],["s",330],["a",203],["s",177],["ENTER",684],["o",1129],["k",237],["l",223],["a",410],["h",565],["o",451],["m",233],["a",583],["ENTER",1725]],"recall_words":["vest","satin","snapper","indiana","iowa","missouri","sunfloer","satin","seattle","kansas","oklahoma"],"recall_word_response_times":[3789,1795,915,733,925,1118,1067,986,1139,1288,1129],"category_target":"","category_target_string":"","trial_type":"free-recall","trial_index":78,"time_elapsed":1666650,"internal_node_id":"0.0-78.0","PROLIFIC ID":"67d6ddf3e159eeccf998a6fb","data_path":"experiments/block_cat/block_cat.h5","stimuli_path":"experiments/block_cat/assets/cuefr_pool.txt","category_path":"experiments/block_cat/assets/cuefr_labels.txt","subjectId":0},{"trial_type":"call-function","trial_index":79,"time_elapsed":1666651,"internal_node_id":"0.0-79.0","PROLIFIC ID":"67d6ddf3e159eeccf998a6fb","data_path":"experiments/block_cat/block_cat.h5","stimuli_path":"experiments/block_cat/assets/cuefr_pool.txt","category_path":"experiments/block_cat/assets/cuefr_labels.txt","subjectId":0},{"view_history":[{"page_index":0,"viewing_time":7191}],"rt":7192,"trial_index":80,"trial_count":15,"message":"<p >When you're ready to proceed, press Next.</p>","trial_type":"instructions","time_elapsed":1673844,"internal_node_id":"0.0-80.0","PROLIFIC ID":"67d6ddf3e159eeccf998a6fb","data_path":"experiments/block_cat/block_cat.h5","stimuli_path":"experiments/block_cat/assets/cuefr_pool.txt","category_path":"experiments/block_cat/assets/cuefr_labels.txt","subjectId":0},{"trial_type":"call-function","trial_index":81,"time_elapsed":1673845,"internal_node_id":"0.0-81.0","PROLIFIC ID":"67d6ddf3e159eeccf998a6fb","data_path":"experiments/block_cat/block_cat.h5","stimuli_path":"experiments/block_cat/assets/cuefr_pool.txt","category_path":"experiments/block_cat/assets/cuefr_labels.txt","subjectId":0},{"load_time":1689867.5,"fixation_display_time":1689867.5999999642,"trial_type":"fixation","trial_index":82,"time_elapsed":1674862,"internal_node_id":"0.0-82.0","PROLIFIC ID":"67d6ddf3e159eeccf998a6fb","data_path":"experiments/block_cat/block_cat.h5","stimuli_path":"experiments/block_cat/assets/cuefr_pool.txt","category_path":"experiments/block_cat/assets/cuefr_labels.txt","subjectId":0},{"load_time":1690887.3999999762,"word_display_times":[1690887.3999999762,1693895.5,1696919,1699948.0999999642,1702950.199999988,1705967.199999988,1708978.699999988,1711992.0999999642,1715008.5,1718019.2999999523,1721033,1724048.5999999642,1727059,1730066.8999999762,1733096.2999999523],"word_list":["ASPARAGUS","MAROON","WILLOW","PLATEAU","HILL","VOLCANO","CHLORINE","BATTLESHIP","CROW","GORGE","LAKE","CLIFF","MAZDA","RACQUETBALL","PUNCH"],"category_list":["VEGETABLES","COLORS","TREES","GEOGRAPHY TERMS","GEOGRAPHY TERMS","GEOGRAPHY TERMS","ELEMENTS","SHIPS","BIRDS","GEOGRAPHY TERMS","GEOGRAPHY TERMS","GEOGRAPHY TERMS","CAR MODELS","SPORTS","BEVERAGES"],"trial_type":"item-presentation","trial_index":83,"time_elapsed":1720105,"internal_node_id":"0.0-83.0","PROLIFIC ID":"67d6ddf3e159eeccf998a6fb","data_path":"experiments/block_cat/block_cat.h5","stimuli_path":"experiments/block_cat/assets/cuefr_pool.txt","category_path":"experiments/block_cat/assets/cuefr_labels.txt","subjectId":0},{"load_time":1736133.7999999523,"recall_display_time":1736134.199999988,"category_cue":"","recall_responses":[["o",2385],["backspace",1216],["p",392],["u",603],["n",270],["c",574],["h",324],["ENTER",1059]],"recall_words":["punch"],"recall_word_response_times":[2385],"category_target":0,"category_target_string":"","trial_type":"free-recall","trial_index":84,"time_elapsed":1726937,"internal_node_id":"0.0-84.0","PROLIFIC ID":"67d6ddf3e159eeccf998a6fb","data_path":"experiments/block_cat/block_cat.h5","stimuli_path":"experiments/block_cat/assets/cuefr_pool.txt","category_path":"experiments/block_cat/assets/cuefr_labels.txt","subjectId":0},{"load_time":1742960.5,"recall_display_time":1742960.5,"category_cue":"","recall_responses":[["m",3852],["a",402],["z",263],["d",299],["a",243],["ENTER",577],["c",1300],["l",432],["i",269],["f",614],["f",142],["ENTER",410],["l",362],["a",614],["k",904],["e",634],["ENTER",673],["g",1128],["o",401],["r",522],["g",248],["e",365],["ENTER",1455],["c",595],["r",250],["o",563],["w",472],["ENTER",664],["b",1706],["a",375],["t",411],["t",140],["l",414],["e",420],["s",208],["h",458],["i",441],["p",238],["ENTER",892],["c",1261],["h",279],["l",335],["o",238],["r",430],["i",366],["n",402],["e",329],["ENTER",1218],["v",473],["o",431],["l",203],["c",371],["a",257],["n",477],["o",391],["ENTER",450],["h",986],["i",300],["l",294],["l",136],["ENTER",511],["p",1068],["l",182],["a",442],["t",493],["e",253],["a",246],["u",515],["ENTER",1268],["w",1981],["i",543],["i",157],["l",243],["o",152],["w",451],["ENTER",740],["m",1550],["a",716],["r",351],["o",683],["o",148],["n",346],["ENTER",480],["a",1076],["s",229],["p",462],["a",384],["r",250]],"recall_words":["mazda","cliff","lake","gorge","crow","battleship","chlorine","volcano","hill","plateau","wiilow","maroon","aspar"],"recall_word_response_times":[3852,1300,362,1128,595,1706,1261,473,986,1068,1981,1550,1076,0],"category_target":"","category_target_string":"","trial_type":"free-recall","trial_index":85,"time_elapsed":1776945,"internal_node_id":"0.0-85.0","PROLIFIC ID":"67d6ddf3e159eeccf998a6fb","data_path":"experiments/block_cat/block_cat.h5","stimuli_path":"experiments/block_cat/assets/cuefr_pool.txt","category_path":"experiments/block_cat/assets/cuefr_labels.txt","subjectId":0},{"trial_type":"call-function","trial_index":86,"time_elapsed":1776945,"internal_node_id":"0.0-86.0","PROLIFIC ID":"67d6ddf3e159eeccf998a6fb","data_path":"experiments/block_cat/block_cat.h5","stimuli_path":"experiments/block_cat/assets/cuefr_pool.txt","category_path":"experiments/block_cat/assets/cuefr_labels.txt","subjectId":0},{"view_history":[{"page_index":0,"viewing_time":12565}],"rt":12565,"trial_index":87,"trial_count":15,"message":"<p >When you're ready to proceed, press Next.</p>","trial_type":"instructions","time_elapsed":1789513,"internal_node_id":"0.0-87.0","PROLIFIC ID":"67d6ddf3e159eeccf998a6fb","data_path":"experiments/block_cat/block_cat.h5","stimuli_path":"experiments/block_cat/assets/cuefr_pool.txt","category_path":"experiments/block_cat/assets/cuefr_labels.txt","subjectId":0},{"trial_type":"call-function","trial_index":88,"time_elapsed":1789513,"internal_node_id":"0.0-88.0","PROLIFIC ID":"67d6ddf3e159eeccf998a6fb","data_path":"experiments/block_cat/block_cat.h5","stimuli_path":"experiments/block_cat/assets/cuefr_pool.txt","category_path":"experiments/block_cat/assets/cuefr_labels.txt","subjectId":0},{"load_time":1805535.5,"fixation_display_time":1805535.5,"trial_type":"fixation","trial_index":89,"time_elapsed":1790515,"internal_node_id":"0.0-89.0","PROLIFIC ID":"67d6ddf3e159eeccf998a6fb","data_path":"experiments/block_cat/block_cat.h5","stimuli_path":"experiments/block_cat/assets/cuefr_pool.txt","category_path":"experiments/block_cat/assets/cuefr_labels.txt","subjectId":0},{"load_time":1806541.0999999642,"word_display_times":[1806541.0999999642,1809558.2999999523,1812573.3999999762,1815583,1818601.199999988,1821619.5,1824630.7999999523,1827642.5999999642,1830661.2999999523,1833685.5999999642,1836694.5999999642,1839721.8999999762,1842741,1845744.3999999762,1848750.7999999523],"word_list":["PLUM","PAPRIKA","FUTON","ROOM","OFFICE","ENTRANCE","NEW ORLEANS","STOMACH","CASHMERE","LOBBY","BATHROOM","CEILING","CHINA","PAPER","PETUNIA"],"category_list":["FRUIT","SEASONINGS","FURNITURE","BUILDING PARTS","BUILDING PARTS","BUILDING PARTS","CITIES","BODY PARTS","FABRICS","BUILDING PARTS","BUILDING PARTS","BUILDING PARTS","COUNTRIES","READING MATERIALS","FLOWERS"],"trial_type":"item-presentation","trial_index":90,"time_elapsed":1835748,"internal_node_id":"0.0-90.0","PROLIFIC ID":"67d6ddf3e159eeccf998a6fb","data_path":"experiments/block_cat/block_cat.h5","stimuli_path":"experiments/block_cat/assets/cuefr_pool.txt","category_path":"experiments/block_cat/assets/cuefr_labels.txt","subjectId":0},{"load_time":1851777.5,"recall_display_time":1851777.5999999642,"category_cue":"","recall_responses":[["p",1384],["e",1695],["t",233],["u",449],["n",246],["i",223],["a",376],["ENTER",458]],"recall_words":["petunia"],"recall_word_response_times":[1384],"category_target":0,"category_target_string":"","trial_type":"free-recall","trial_index":91,"time_elapsed":1840823,"internal_node_id":"0.0-91.0","PROLIFIC ID":"67d6ddf3e159eeccf998a6fb","data_path":"experiments/block_cat/block_cat.h5","stimuli_path":"experiments/block_cat/assets/cuefr_pool.txt","category_path":"experiments/block_cat/assets/cuefr_labels.txt","subjectId":0},{"load_time":1856847,"recall_display_time":1856847,"category_cue":"","recall_responses":[["c",761],["h",328],["i",317],["n",314],["a",582],["ENTER",774],["p",1899],["l",233],["u",245],["m",264],["ENTER",714],["p",2050],["a",375],["p",591],["e",449],["r",195],["ENTER",762],["c",4336],["e",264],["i",509],["l",253],["i",214],["n",236],["g",283],["ENTER",550],["b",909],["a",327],["t",469],["h",223],["r",276],["o",572],["o",324],["m",285],["ENTER",662],["l",1398],["o",192],["b",409],["b",153],["y",264],["ENTER",590],["c",1175],["a",274],["s",215],["m",591],["e",428],["backspace",957],["backspace",144],["h",1152],["m",305],["e",386],["r",206],["e",193],["ENTER",896],["e",785],["n",389],["t",518],["r",226],["a",662],["n",489],["c",357],["e",274],["ENTER",448],["s",611],["t",327],["o",459],["m",344],["a",428],["c",520],["h",389],["ENTER",845],["o",2927],["f",510],["f",152],["i",1732],["c",356],["e",223],["ENTER",866],["r",1236],["o",519],["o",142],["m",233],["ENTER",418]],"recall_words":["china","plum","paper","ceiling","bathroom","lobby","cashmere","entrance","stomach","office","room"],"recall_word_response_times":[761,1899,2050,4336,909,1398,1175,785,611,2927,1236],"category_target":"","category_target_string":"","trial_type":"free-recall","trial_index":92,"time_elapsed":1890841,"internal_node_id":"0.0-92.0","PROLIFIC ID":"67d6ddf3e159eeccf998a6fb","data_path":"experiments/block_cat/block_cat.h5","stimuli_path":"experiments/block_cat/assets/cuefr_pool.txt","category_path":"experiments/block_cat/assets/cuefr_labels.txt","subjectId":0},{"trial_type":"call-function","trial_index":93,"time_elapsed":1890842,"internal_node_id":"0.0-93.0","PROLIFIC ID":"67d6ddf3e159eeccf998a6fb","data_path":"experiments/block_cat/block_cat.h5","stimuli_path":"experiments/block_cat/assets/cuefr_pool.txt","category_path":"experiments/block_cat/assets/cuefr_labels.txt","subjectId":0},{"view_history":[{"page_index":0,"viewing_time":6529}],"rt":6530,"trial_index":94,"trial_count":15,"message":"<p >When you're ready to proceed, press Next.</p>","trial_type":"instructions","time_elapsed":1897373,"internal_node_id":"0.0-94.0","PROLIFIC ID":"67d6ddf3e159eeccf998a6fb","data_path":"experiments/block_cat/block_cat.h5","stimuli_path":"experiments/block_cat/assets/cuefr_pool.txt","category_path":"experiments/block_cat/assets/cuefr_labels.txt","subjectId":0},{"trial_type":"call-function","trial_index":95,"time_elapsed":1897374,"internal_node_id":"0.0-95.0","PROLIFIC ID":"67d6ddf3e159eeccf998a6fb","data_path":"experiments/block_cat/block_cat.h5","stimuli_path":"experiments/block_cat/assets/cuefr_pool.txt","category_path":"experiments/block_cat/assets/cuefr_labels.txt","subjectId":0},{"load_time":1913396.5999999642,"fixation_display_time":1913396.5999999642,"trial_type":"fixation","trial_index":96,"time_elapsed":1898381,"internal_node_id":"0.0-96.0","PROLIFIC ID":"67d6ddf3e159eeccf998a6fb","data_path":"experiments/block_cat/block_cat.h5","stimuli_path":"experiments/block_cat/assets/cuefr_pool.txt","category_path":"experiments/block_cat/assets/cuefr_labels.txt","subjectId":0},{"load_time":1914406.0999999642,"word_display_times":[1914406.199999988,1917417.5,1920439.5999999642,1923458.699999988,1926484.0999999642,1929505.199999988,1932533.5,1935536,1938559,1941577.7999999523,1944588.0999999642,1947614.199999988,1950629.8999999762,1953635.3999999762,1956650.199999988],"word_list":["BUNGALOW","CRUISE SHIP","SHARK","NEON","NITROGEN","CARBON","NAIL GUN","FOX","MOTH","ZINC","CALCIUM","LITHIUM","BLENDER","SWIMMING","PUNCH"],"category_list":["DWELLINGS","SHIPS","FISH","ELEMENTS","ELEMENTS","ELEMENTS","CARPENTRY TOOLS","FOUR-FOOTED ANIMALS","INSECTS","ELEMENTS","ELEMENTS","ELEMENTS","KITCHEN TOOLS","SPORTS","BEVERAGES"],"trial_type":"item-presentation","trial_index":97,"time_elapsed":1943641,"internal_node_id":"0.0-97.0","PROLIFIC ID":"67d6ddf3e159eeccf998a6fb","data_path":"experiments/block_cat/block_cat.h5","stimuli_path":"experiments/block_cat/assets/cuefr_pool.txt","category_path":"experiments/block_cat/assets/cuefr_labels.txt","subjectId":0},{"load_time":1959670.199999988,"recall_display_time":1959671.699999988,"category_cue":"ELEMENTS","recall_responses":[["l",7275],["i",232],["t",877],["h",202],["i",256],["u",303],["m",256]],"recall_words":["lithium"],"recall_word_response_times":[7275,0],"category_target":197,"category_target_string":"NITROGEN","trial_type":"free-recall","trial_index":98,"time_elapsed":1953651,"internal_node_id":"0.0-98.0","PROLIFIC ID":"67d6ddf3e159eeccf998a6fb","data_path":"experiments/block_cat/block_cat.h5","stimuli_path":"experiments/block_cat/assets/cuefr_pool.txt","category_path":"experiments/block_cat/assets/cuefr_labels.txt","subjectId":0},{"load_time":1969679.3999999762,"recall_display_time":1969679.3999999762,"category_cue":"","recall_responses":[["o",1231],["backspace",958],["p",488],["u",989],["n",357],["c",408],["h",263],["ENTER",581],["v",1612],["backspace",1111],["c",548],["a",266],["l",407],["c",714],["i",408],["u",212],["m",213],["ENTER",418],["z",1387],["i",509],["n",286],["c",365],["ENTER",713],["m",979],["o",355],["t",398],["h",337],["ENTER",600],["f",1112],["o",468],["x",602],["ENTER",466],["n",2407],["a",336],["i",499],["l",224],[" ",243],["g",407],["u",317],["n",712],["ENTER",764],["c",745],["a",285],["r",376],["b",1113],["o",469],["n",304],["ENTER",407],["n",1489],["i",316],["t",375],["r",265],["i",448],["g",1560],["e",274],["n",448],["ENTER",346],["o",694],["x",846],["y",692],["g",366],["e",296],["n",500],["ENTER",415],["n",1020],["e",367],["o",509],["n",306],["ENTER",407],["s",1570],["h",447],["a",316],["r",316],["k",480],["ENTER",568],["b",2541],["u",387],["n",612],["g",1243]],"recall_words":["punch","calcium","zinc","moth","fox","nail gun","carbon","nitrigen","oxygen","neon","shark","bung"],"recall_word_response_times":[1231,1612,1387,979,1112,2407,745,1489,694,1020,1570,2541,0],"category_target":"","category_target_string":"","trial_type":"free-recall","trial_index":99,"time_elapsed":2003666,"internal_node_id":"0.0-99.0","PROLIFIC ID":"67d6ddf3e159eeccf998a6fb","data_path":"experiments/block_cat/block_cat.h5","stimuli_path":"experiments/block_cat/assets/cuefr_pool.txt","category_path":"experiments/block_cat/assets/cuefr_labels.txt","subjectId":0},{"trial_type":"call-function","trial_index":100,"time_elapsed":2003666,"internal_node_id":"0.0-100.0","PROLIFIC ID":"67d6ddf3e159eeccf998a6fb","data_path":"experiments/block_cat/block_cat.h5","stimuli_path":"experiments/block_cat/assets/cuefr_pool.txt","category_path":"experiments/block_cat/assets/cuefr_labels.txt","subjectId":0},{"view_history":[{"page_index":0,"viewing_time":7597}],"rt":7597,"trial_index":101,"trial_count":15,"message":"<p >When you're ready to proceed, press Next.</p>","trial_type":"instructions","time_elapsed":2011265,"internal_node_id":"0.0-101.0","PROLIFIC ID":"67d6ddf3e159eeccf998a6fb","data_path":"experiments/block_cat/block_cat.h5","stimuli_path":"experiments/block_cat/assets/cuefr_pool.txt","category_path":"experiments/block_cat/assets/cuefr_labels.txt","subjectId":0},{"trial_type":"call-function","trial_index":102,"time_elapsed":2011265,"internal_node_id":"0.0-102.0","PROLIFIC ID":"67d6ddf3e159eeccf998a6fb","data_path":"experiments/block_cat/block_cat.h5","stimuli_path":"experiments/block_cat/assets/cuefr_pool.txt","category_path":"experiments/block_cat/assets/cuefr_labels.txt","subjectId":0},{"load_time":2027287.699999988,"fixation_display_time":2027287.699999988,"trial_type":"fixation","trial_index":103,"time_elapsed":2012272,"internal_node_id":"0.0-103.0","PROLIFIC ID":"67d6ddf3e159eeccf998a6fb","data_path":"experiments/block_cat/block_cat.h5","stimuli_path":"experiments/block_cat/assets/cuefr_pool.txt","category_path":"experiments/block_cat/assets/cuefr_labels.txt","subjectId":0},{"load_time":2028296.5999999642,"word_display_times":[2028296.5999999642,2031310.5,2034325.7999999523,2037348.7999999523,2040369.199999988,2043387.8999999762,2046403.2999999523,2049427,2052435.699999988,2055447.0999999642,2058468.699999988,2061480.0999999642,2064495.699999988,2067527.0999999642,2070544.699999988],"word_list":["LAMBORGHINI","CURRY","CELLAR","PRIVATE","MAJOR","GENERAL","LETTER","SPANDEX","MONTANA","CADET","SOLDIER","ADMIRAL","SKIRT","CYMBAL","CORN"],"category_list":["CAR MODELS","SEASONINGS","BUILDING PARTS","MILITARY TITLES","MILITARY TITLES","MILITARY TITLES","READING MATERIALS","FABRICS","STATES","MILITARY TITLES","MILITARY TITLES","MILITARY TITLES","CLOTHES","INSTRUMENTS","VEGETABLES"],"trial_type":"item-presentation","trial_index":104,"time_elapsed":2057542,"internal_node_id":"0.0-104.0","PROLIFIC ID":"67d6ddf3e159eeccf998a6fb","data_path":"experiments/block_cat/block_cat.h5","stimuli_path":"experiments/block_cat/assets/cuefr_pool.txt","category_path":"experiments/block_cat/assets/cuefr_labels.txt","subjectId":0},{"load_time":2073570,"recall_display_time":2073570.199999988,"category_cue":"MILITARY TITLES","recall_responses":[["g",1919],["e",283],["n",429],["r",661],["backspace",1215],["e",649],["r",204],["a",235],["l",491],["ENTER",344]],"recall_words":["general"],"recall_word_response_times":[1919],"category_target":536,"category_target_string":"MAJOR","trial_type":"free-recall","trial_index":105,"time_elapsed":2063981,"internal_node_id":"0.0-105.0","PROLIFIC ID":"67d6ddf3e159eeccf998a6fb","data_path":"experiments/block_cat/block_cat.h5","stimuli_path":"experiments/block_cat/assets/cuefr_pool.txt","category_path":"experiments/block_cat/assets/cuefr_labels.txt","subjectId":0},{"load_time":2080005.5,"recall_display_time":2080005.5,"category_cue":"","recall_responses":[["m",936],["a",429],["j",887],["o",398],["r",773],["ENTER",693],["c",2242],["o",469],["r",489],["n",467],["ENTER",550],["c",2143],["u",487],["backspace",632],["y",408],["m",1019],["b",348],["a",356],["l",571],["ENTER",772],["s",705],["k",571],["i",254],["r",508],["t",196],["ENTER",884],["a",959],["d",297],["m",539],["i",243],["r",378],["a",245],["l",468],["ENTER",601],["s",1111],["o",581],["l",203],["d",551],["i",457],["e",387],["r",206],["ENTER",598],["c",1062],["a",273],["d",256],["e",213],["t",214],["ENTER",509],["m",1020],["o",314],["n",305],["t",338],["a",284],["n",418],["a",317],["ENTER",548],["s",1388],["p",397],["a",397],["n",551],["d",325],["e",211],["x",299],["ENTER",407],["l",1386],["r",469],["backspace",652],["e",446],["t",235],["t",142],["e",235],["r",162],["ENTER",589],["g",1491],["backspace",1234],["m",1496],["a",407],["backspace",817],["p",1253],["r",407],["i",510],["v",958],["a",306],["t",365],["e",226]],"recall_words":["major","corn","cymbal","skirt","admiral","soldier","cadet","montana","spandex","letter","mprivate"],"recall_word_response_times":[936,2242,2143,705,959,1111,1062,1020,1388,1386,1491,0],"category_target":"","category_target_string":"","trial_type":"free-recall","trial_index":106,"time_elapsed":2113994,"internal_node_id":"0.0-106.0","PROLIFIC ID":"67d6ddf3e159eeccf998a6fb","data_path":"experiments/block_cat/block_cat.h5","stimuli_path":"experiments/block_cat/assets/cuefr_pool.txt","category_path":"experiments/block_cat/assets/cuefr_labels.txt","subjectId":0},{"trial_type":"call-function","trial_index":107,"time_elapsed":2113994,"internal_node_id":"0.0-107.0","PROLIFIC ID":"67d6ddf3e159eeccf998a6fb","data_path":"experiments/block_cat/block_cat.h5","stimuli_path":"experiments/block_cat/assets/cuefr_pool.txt","category_path":"experiments/block_cat/assets/cuefr_labels.txt","subjectId":0},{"view_history":[{"page_index":0,"viewing_time":4586}],"rt":4586,"trial_index":108,"trial_count":15,"message":"<p >You have completed the experiment. Thank you for your participation!</p>","trial_type":"instructions","time_elapsed":2118582,"internal_node_id":"0.0-108.0","PROLIFIC ID":"67d6ddf3e159eeccf998a6fb","data_path":"experiments/block_cat/block_cat.h5","stimuli_path":"experiments/block_cat/assets/cuefr_pool.txt","category_path":"experiments/block_cat/assets/cuefr_labels.txt","subjectId":0},{"rt":4608,"stimulus":"You've completed the experiment! Your total performance bonus is $5.125. Click \"SUBMIT\" or wait five seconds to complete the experiment and confirm your bonus. Make sure you proceed to the next page to ensure your bonus is recorded.","response":0,"bonus":5.125,"trial_type":"html-button-response","trial_index":109,"time_elapsed":2123199,"internal_node_id":"0.0-109.0","PROLIFIC ID":"67d6ddf3e159eeccf998a6fb","data_path":"experiments/block_cat/block_cat.h5","stimuli_path":"experiments/block_cat/assets/cuefr_pool.txt","category_path":"experiments/block_cat/assets/cuefr_labels.txt","subjectId":0}]
