[{"success":true,"rt":11293,"trial_type":"fullscreen","trial_index":0,"time_elapsed":12313,"internal_node_id":"0.0-0.0","PROLIFIC ID":"67f437b7797e833603cd854e","data_path":"experiments/block_cat/block_cat.h5","stimuli_path":"experiments/block_cat/assets/cuefr_pool.txt","category_path":"experiments/block_cat/assets/cuefr_labels.txt","subjectId":712},{"view_history":[{"page_index":0,"viewing_time":11436},{"page_index":1,"viewing_time":29456},{"page_index":2,"viewing_time":45655},{"page_index":3,"viewing_time":27712},{"page_index":4,"viewing_time":12656},{"page_index":5,"viewing_time":17120},{"page_index":6,"viewing_time":27848},{"page_index":7,"viewing_time":17608}],"rt":189491,"trial_type":"instructions","trial_index":1,"time_elapsed":201806,"internal_node_id":"0.0-1.0","PROLIFIC ID":"67f437b7797e833603cd854e","data_path":"experiments/block_cat/block_cat.h5","stimuli_path":"experiments/block_cat/assets/cuefr_pool.txt","category_path":"experiments/block_cat/assets/cuefr_labels.txt","subjectId":712},{"view_history":[{"page_index":0,"viewing_time":5070}],"rt":5070,"trial_type":"instructions","trial_index":2,"time_elapsed":206876,"internal_node_id":"0.0-2.0","PROLIFIC ID":"67f437b7797e833603cd854e","data_path":"experiments/block_cat/block_cat.h5","stimuli_path":"experiments/block_cat/assets/cuefr_pool.txt","category_path":"experiments/block_cat/assets/cuefr_labels.txt","subjectId":712},{"trial_type":"call-function","trial_index":3,"time_elapsed":206877,"internal_node_id":"0.0-3.0","PROLIFIC ID":"67f437b7797e833603cd854e","data_path":"experiments/block_cat/block_cat.h5","stimuli_path":"experiments/block_cat/assets/cuefr_pool.txt","category_path":"experiments/block_cat/assets/cuefr_labels.txt","subjectId":712},{"trial_type":"call-function","trial_index":4,"time_elapsed":206878,"internal_node_id":"0.0-4.0","PROLIFIC ID":"67f437b7797e833603cd854e","data_path":"experiments/block_cat/block_cat.h5","stimuli_path":"experiments/block_cat/assets/cuefr_pool.txt","category_path":"experiments/block_cat/assets/cuefr_labels.txt","subjectId":712},{"load_time":238433,"fixation_display_time":238433.09999999776,"trial_type":"fixation","trial_index":5,"time_elapsed":207893,"internal_node_id":"0.0-5.0","PROLIFIC ID":"67f437b7797e833603cd854e","data_path":"experiments/block_cat/block_cat.h5","stimuli_path":"experiments/block_cat/assets/cuefr_pool.txt","category_path":"experiments/block_cat/assets/cuefr_labels.txt","subjectId":712},{"load_time":239450.29999999702,"word_display_times":[239450.5,242470.3999999985,245481.3999999985,248502.29999999702,251531.69999999925,254559.09999999776,257580.3999999985,260590.19999999925,263614.69999999925,266640.8999999985,269663,272669.299999997,275694.69999999925,278717,281737.19999999925],"word_list":["GRASSHOPPER","LITHIUM","CHARTREUSE","ILLINOIS","KANSAS","OKLAHOMA","TAPE MEASURE","SWIMMING","DOVE","IDAHO","NEW HAMPSHIRE","LOUISIANA","SERGEANT","BROCHURE","KIWI"],"category_list":["INSECTS","ELEMENTS","COLORS","STATES","STATES","STATES","CARPENTRY TOOLS","SPORTS","BIRDS","STATES","STATES","STATES","MILITARY TITLES","READING MATERIALS","FRUIT"],"trial_type":"item-presentation","trial_index":6,"time_elapsed":253195,"internal_node_id":"0.0-6.0","PROLIFIC ID":"67f437b7797e833603cd854e","data_path":"experiments/block_cat/block_cat.h5","stimuli_path":"experiments/block_cat/assets/cuefr_pool.txt","category_path":"experiments/block_cat/assets/cuefr_labels.txt","subjectId":712},{"load_time":284756.3999999985,"recall_display_time":284757.19999999925,"category_cue":"STATES","recall_responses":[["o",4814],["k",407],["l",520],["a",616],["m",768],["a",904]],"recall_words":["oklama"],"recall_word_response_times":[4814,0],"category_target":442,"category_target_string":"ILLINOIS","trial_type":"free-recall","trial_index":7,"time_elapsed":263217,"internal_node_id":"0.0-7.0","PROLIFIC ID":"67f437b7797e833603cd854e","data_path":"experiments/block_cat/block_cat.h5","stimuli_path":"experiments/block_cat/assets/cuefr_pool.txt","category_path":"experiments/block_cat/assets/cuefr_labels.txt","subjectId":712},{"load_time":294777.3999999985,"recall_display_time":294777.59999999776,"category_cue":"","recall_responses":[["n",5890],["e",639],["w",456],[" ",208],["y",840],["o",656],["r",328],["k",240],["s",672],["h",280],["i",1032],["r",400],["e",280],["ENTER",2648],["s",5928],["w",328],["i",456],["m",320],["m",216],["backspace",1272],["backspace",184],["backspace",176],["backspace",160],["backspace",160],["i",1279],["l",392],["l",176],["i",328],["n",592],["o",376],["i",304],["s",760],["ENTER",1031],["s",12624],["w",383],["o",384],["m",392],["m",168],["i",248],["n",328],["g",528],["backspace",1936],["backspace",184],["backspace",160],["backspace",176],["backspace",192],["backspace",439],["i",984],["m",320],["m",176],["i",328],["n",320],["g",472]],"recall_words":["new yorkshire","illinois","swimming"],"recall_word_response_times":[5890,5928,12624,0],"category_target":"","category_target_string":"","trial_type":"free-recall","trial_index":8,"time_elapsed":313241,"internal_node_id":"0.0-8.0","PROLIFIC ID":"67f437b7797e833603cd854e","data_path":"experiments/block_cat/block_cat.h5","stimuli_path":"experiments/block_cat/assets/cuefr_pool.txt","category_path":"experiments/block_cat/assets/cuefr_labels.txt","subjectId":712},{"trial_type":"call-function","trial_index":9,"time_elapsed":313242,"internal_node_id":"0.0-9.0","PROLIFIC ID":"67f437b7797e833603cd854e","data_path":"experiments/block_cat/block_cat.h5","stimuli_path":"experiments/block_cat/assets/cuefr_pool.txt","category_path":"experiments/block_cat/assets/cuefr_labels.txt","subjectId":712},{"view_history":[{"page_index":0,"viewing_time":13682}],"rt":13682,"trial_index":10,"trial_count":15,"message":"<p >You've completed the first trial! Please click the right arrow on your keyboard to proceed to the next trial.</p>","trial_type":"instructions","time_elapsed":326930,"internal_node_id":"0.0-10.0","PROLIFIC ID":"67f437b7797e833603cd854e","data_path":"experiments/block_cat/block_cat.h5","stimuli_path":"experiments/block_cat/assets/cuefr_pool.txt","category_path":"experiments/block_cat/assets/cuefr_labels.txt","subjectId":712},{"trial_type":"call-function","trial_index":11,"time_elapsed":326930,"internal_node_id":"0.0-11.0","PROLIFIC ID":"67f437b7797e833603cd854e","data_path":"experiments/block_cat/block_cat.h5","stimuli_path":"experiments/block_cat/assets/cuefr_pool.txt","category_path":"experiments/block_cat/assets/cuefr_labels.txt","subjectId":712},{"load_time":358484.299999997,"fixation_display_time":358484.299999997,"trial_type":"fixation","trial_index":12,"time_elapsed":327939,"internal_node_id":"0.0-12.0","PROLIFIC ID":"67f437b7797e833603cd854e","data_path":"experiments/block_cat/block_cat.h5","stimuli_path":"experiments/block_cat/assets/cuefr_pool.txt","category_path":"experiments/block_cat/assets/cuefr_labels.txt","subjectId":712},{"load_time":359497.299999997,"word_display_times":[359497.3999999985,362508.8999999985,365515.8999999985,368522,371538.3999999985,374559.19999999925,377571.19999999925,380591.299999997,383607.8999999985,386621.799999997,389643.5,392651,395669.19999999925,398689.5,401713.299999997],"word_list":["THUNDER","PAPRIKA","POTATO","TRAILER","HUT","TOWNHOUSE","ORLANDO","CORVETTE","KOOL AID","CABIN","ADOBE","CASTLE","MAHI MAHI","ELBOW","SCHOONER"],"category_list":["WEATHER TERMS","SEASONINGS","VEGETABLES","DWELLINGS","DWELLINGS","DWELLINGS","CITIES","CAR MODELS","BEVERAGES","DWELLINGS","DWELLINGS","DWELLINGS","FISH","BODY PARTS","SHIPS"],"trial_type":"item-presentation","trial_index":13,"time_elapsed":373183,"internal_node_id":"0.0-13.0","PROLIFIC ID":"67f437b7797e833603cd854e","data_path":"experiments/block_cat/block_cat.h5","stimuli_path":"experiments/block_cat/assets/cuefr_pool.txt","category_path":"experiments/block_cat/assets/cuefr_labels.txt","subjectId":712},{"load_time":404742.69999999925,"recall_display_time":404742.8999999985,"category_cue":"DWELLINGS","recall_responses":[["h",9915]],"recall_words":["h"],"recall_word_response_times":[9915,0],"category_target":181,"category_target_string":"TRAILER","trial_type":"free-recall","trial_index":14,"time_elapsed":383198,"internal_node_id":"0.0-14.0","PROLIFIC ID":"67f437b7797e833603cd854e","data_path":"experiments/block_cat/block_cat.h5","stimuli_path":"experiments/block_cat/assets/cuefr_pool.txt","category_path":"experiments/block_cat/assets/cuefr_labels.txt","subjectId":712},{"load_time":414759,"recall_display_time":414759.299999997,"category_cue":"","recall_responses":[["ENTER",4034],["h",1704],["a",976],["t",464],["ENTER",1623],["c",1169],["a",415],["b",600],["b",168],["i",408],["n",688],["ENTER",1503],["a",5312],["d",400],["o",632],["b",680],["e",368],["ENTER",703],["c",2256],["a",408],["s",272],["t",407],["i",408],["l",376],["e",512],["ENTER",1239],["ENTER",9200],["ENTER",3032],["a",1888],["d",616],["o",1080],["b",360],["e",392],["ENTER",903]],"recall_words":["","hat","cabbin","adobe","castile","","","adobe"],"recall_word_response_times":[1704,1169,5312,2256,1888],"category_target":"","category_target_string":"","trial_type":"free-recall","trial_index":15,"time_elapsed":433213,"internal_node_id":"0.0-15.0","PROLIFIC ID":"67f437b7797e833603cd854e","data_path":"experiments/block_cat/block_cat.h5","stimuli_path":"experiments/block_cat/assets/cuefr_pool.txt","category_path":"experiments/block_cat/assets/cuefr_labels.txt","subjectId":712},{"trial_type":"call-function","trial_index":16,"time_elapsed":433214,"internal_node_id":"0.0-16.0","PROLIFIC ID":"67f437b7797e833603cd854e","data_path":"experiments/block_cat/block_cat.h5","stimuli_path":"experiments/block_cat/assets/cuefr_pool.txt","category_path":"experiments/block_cat/assets/cuefr_labels.txt","subjectId":712},{"view_history":[{"page_index":0,"viewing_time":8971}],"rt":8971,"trial_index":17,"trial_count":15,"message":"<p >When you're ready to proceed, press Next.</p>","trial_type":"instructions","time_elapsed":442186,"internal_node_id":"0.0-17.0","PROLIFIC ID":"67f437b7797e833603cd854e","data_path":"experiments/block_cat/block_cat.h5","stimuli_path":"experiments/block_cat/assets/cuefr_pool.txt","category_path":"experiments/block_cat/assets/cuefr_labels.txt","subjectId":712},{"trial_type":"call-function","trial_index":18,"time_elapsed":442187,"internal_node_id":"0.0-18.0","PROLIFIC ID":"67f437b7797e833603cd854e","data_path":"experiments/block_cat/block_cat.h5","stimuli_path":"experiments/block_cat/assets/cuefr_pool.txt","category_path":"experiments/block_cat/assets/cuefr_labels.txt","subjectId":712},{"load_time":473740.299999997,"fixation_display_time":473740.299999997,"trial_type":"fixation","trial_index":19,"time_elapsed":443191,"internal_node_id":"0.0-19.0","PROLIFIC ID":"67f437b7797e833603cd854e","data_path":"experiments/block_cat/block_cat.h5","stimuli_path":"experiments/block_cat/assets/cuefr_pool.txt","category_path":"experiments/block_cat/assets/cuefr_labels.txt","subjectId":712},{"load_time":474747.3999999985,"word_display_times":[474747.3999999985,477769.799999997,480771.8999999985,483790.299999997,486812.69999999925,489837.5,492848.5,495874.8999999985,498896.69999999925,501908.19999999925,504918.09999999776,507930.09999999776,510949.799999997,513967,516990.3999999985],"word_list":["CHISEL","OKLAHOMA","GYMNASTICS","JACKET","TANK TOP","PAJAMAS","VOLCANO","POT","LIZARD","BELT","TIE","SCARF","ASPEN","PERIODICAL","LAVENDER"],"category_list":["CARPENTRY TOOLS","STATES","SPORTS","CLOTHES","CLOTHES","CLOTHES","GEOGRAPHY TERMS","KITCHEN TOOLS","FOUR-FOOTED ANIMALS","CLOTHES","CLOTHES","CLOTHES","TREES","READING MATERIALS","COLORS"],"trial_type":"item-presentation","trial_index":20,"time_elapsed":488464,"internal_node_id":"0.0-20.0","PROLIFIC ID":"67f437b7797e833603cd854e","data_path":"experiments/block_cat/block_cat.h5","stimuli_path":"experiments/block_cat/assets/cuefr_pool.txt","category_path":"experiments/block_cat/assets/cuefr_labels.txt","subjectId":712},{"load_time":520023.5,"recall_display_time":520023.799999997,"category_cue":"CLOTHES","recall_responses":[["t",2625],["i",1096],["e",440],["ENTER",623]],"recall_words":["tie"],"recall_word_response_times":[2625],"category_target":115,"category_target_string":"JACKET","trial_type":"free-recall","trial_index":21,"time_elapsed":493255,"internal_node_id":"0.0-21.0","PROLIFIC ID":"67f437b7797e833603cd854e","data_path":"experiments/block_cat/block_cat.h5","stimuli_path":"experiments/block_cat/assets/cuefr_pool.txt","category_path":"experiments/block_cat/assets/cuefr_labels.txt","subjectId":712},{"load_time":524810.6999999993,"recall_display_time":524810.799999997,"category_cue":"","recall_responses":[["s",1013],["c",295],["a",360],["r",304],["f",1648],["s",280],["ENTER",1104],["b",4040],["e",327],["l",352],["t",343],["ENTER",1375]],"recall_words":["scarfs","belt"],"recall_word_response_times":[1013,4040],"category_target":"","category_target_string":"","trial_type":"free-recall","trial_index":22,"time_elapsed":543267,"internal_node_id":"0.0-22.0","PROLIFIC ID":"67f437b7797e833603cd854e","data_path":"experiments/block_cat/block_cat.h5","stimuli_path":"experiments/block_cat/assets/cuefr_pool.txt","category_path":"experiments/block_cat/assets/cuefr_labels.txt","subjectId":712},{"trial_type":"call-function","trial_index":23,"time_elapsed":543267,"internal_node_id":"0.0-23.0","PROLIFIC ID":"67f437b7797e833603cd854e","data_path":"experiments/block_cat/block_cat.h5","stimuli_path":"experiments/block_cat/assets/cuefr_pool.txt","category_path":"experiments/block_cat/assets/cuefr_labels.txt","subjectId":712},{"view_history":[{"page_index":0,"viewing_time":6188}],"rt":6188,"trial_index":24,"trial_count":15,"message":"<p >When you're ready to proceed, press Next.</p>","trial_type":"instructions","time_elapsed":549457,"internal_node_id":"0.0-24.0","PROLIFIC ID":"67f437b7797e833603cd854e","data_path":"experiments/block_cat/block_cat.h5","stimuli_path":"experiments/block_cat/assets/cuefr_pool.txt","category_path":"experiments/block_cat/assets/cuefr_labels.txt","subjectId":712},{"trial_type":"call-function","trial_index":25,"time_elapsed":549457,"internal_node_id":"0.0-25.0","PROLIFIC ID":"67f437b7797e833603cd854e","data_path":"experiments/block_cat/block_cat.h5","stimuli_path":"experiments/block_cat/assets/cuefr_pool.txt","category_path":"experiments/block_cat/assets/cuefr_labels.txt","subjectId":712},{"load_time":581010.799999997,"fixation_display_time":581010.799999997,"trial_type":"fixation","trial_index":26,"time_elapsed":550468,"internal_node_id":"0.0-26.0","PROLIFIC ID":"67f437b7797e833603cd854e","data_path":"experiments/block_cat/block_cat.h5","stimuli_path":"experiments/block_cat/assets/cuefr_pool.txt","category_path":"experiments/block_cat/assets/cuefr_labels.txt","subjectId":712},{"load_time":582024.5999999978,"word_display_times":[582024.6999999993,585032.5,588040,591051.799999997,594081,597097.1999999993,600103.6999999993,603108.1999999993,606125.5999999978,609149.799999997,612173.3999999985,615184,618190.3999999985,621193.8999999985,624201],"word_list":["EGGPLANT","YACHT","ROOF","RAIN","DROUGHT","MONSOON","PAPRIKA","KOOL AID","ANGELFISH","BLIZZARD","EARTHQUAKE","SNOW","CONDOMINIUM","CABINET","FLUORINE"],"category_list":["VEGETABLES","SHIPS","BUILDING PARTS","WEATHER TERMS","WEATHER TERMS","WEATHER TERMS","SEASONINGS","BEVERAGES","FISH","WEATHER TERMS","WEATHER TERMS","WEATHER TERMS","DWELLINGS","FURNITURE","ELEMENTS"],"trial_type":"item-presentation","trial_index":27,"time_elapsed":595667,"internal_node_id":"0.0-27.0","PROLIFIC ID":"67f437b7797e833603cd854e","data_path":"experiments/block_cat/block_cat.h5","stimuli_path":"experiments/block_cat/assets/cuefr_pool.txt","category_path":"experiments/block_cat/assets/cuefr_labels.txt","subjectId":712},{"load_time":627226.8999999985,"recall_display_time":627227,"category_cue":"","recall_responses":[["r",7300],["a",255],["i",504],["n",304],["ENTER",1047]],"recall_words":["rain"],"recall_word_response_times":[7300],"category_target":0,"category_target_string":"","trial_type":"free-recall","trial_index":28,"time_elapsed":605085,"internal_node_id":"0.0-28.0","PROLIFIC ID":"67f437b7797e833603cd854e","data_path":"experiments/block_cat/block_cat.h5","stimuli_path":"experiments/block_cat/assets/cuefr_pool.txt","category_path":"experiments/block_cat/assets/cuefr_labels.txt","subjectId":712},{"load_time":636640.799999997,"recall_display_time":636640.8999999985,"category_cue":"","recall_responses":[["e",958],["a",296],["r",336],["t",239],["q",1520],["u",223],["a",320],["k",599],["e",344],["ENTER",527],["f",688],["l",328],["u",392],["o",264],["r",680],["i",320],["n",1176],["e",376],["ENTER",455],["c",5784],["a",319],["b",328],["i",352],["n",304],["e",280],["t",280],["ENTER",631],["c",5144],["o",312],["n",312],["d",544],["o",416],["m",344],["i",320],["n",311],["i",288],["u",264],["m",304],["ENTER",855],["s",3328],["n",311],["o",336],["w",680],["ENTER",383],["b",4704],["l",480],["i",328],["z",800],["z",160],["a",240],["r",528],["d",248],["ENTER",1064],["a",2944],["n",352],["g",344],["e",344],["l",360],["f",384],["i",328],["s",352],["h",256],["ENTER",879]],"recall_words":["eartquake","fluorine","cabinet","condominium","snow","blizzard","angelfish"],"recall_word_response_times":[958,688,5784,5144,3328,4704,2944],"category_target":"","category_target_string":"","trial_type":"free-recall","trial_index":29,"time_elapsed":655095,"internal_node_id":"0.0-29.0","PROLIFIC ID":"67f437b7797e833603cd854e","data_path":"experiments/block_cat/block_cat.h5","stimuli_path":"experiments/block_cat/assets/cuefr_pool.txt","category_path":"experiments/block_cat/assets/cuefr_labels.txt","subjectId":712},{"trial_type":"call-function","trial_index":30,"time_elapsed":655096,"internal_node_id":"0.0-30.0","PROLIFIC ID":"67f437b7797e833603cd854e","data_path":"experiments/block_cat/block_cat.h5","stimuli_path":"experiments/block_cat/assets/cuefr_pool.txt","category_path":"experiments/block_cat/assets/cuefr_labels.txt","subjectId":712},{"view_history":[{"page_index":0,"viewing_time":6605}],"rt":6606,"trial_index":31,"trial_count":15,"message":"<p >When you're ready to proceed, press Next.</p>","trial_type":"instructions","time_elapsed":661703,"internal_node_id":"0.0-31.0","PROLIFIC ID":"67f437b7797e833603cd854e","data_path":"experiments/block_cat/block_cat.h5","stimuli_path":"experiments/block_cat/assets/cuefr_pool.txt","category_path":"experiments/block_cat/assets/cuefr_labels.txt","subjectId":712},{"trial_type":"call-function","trial_index":32,"time_elapsed":661703,"internal_node_id":"0.0-32.0","PROLIFIC ID":"67f437b7797e833603cd854e","data_path":"experiments/block_cat/block_cat.h5","stimuli_path":"experiments/block_cat/assets/cuefr_pool.txt","category_path":"experiments/block_cat/assets/cuefr_labels.txt","subjectId":712},{"load_time":693257.1999999993,"fixation_display_time":693257.1999999993,"trial_type":"fixation","trial_index":33,"time_elapsed":662707,"internal_node_id":"0.0-33.0","PROLIFIC ID":"67f437b7797e833603cd854e","data_path":"experiments/block_cat/block_cat.h5","stimuli_path":"experiments/block_cat/assets/cuefr_pool.txt","category_path":"experiments/block_cat/assets/cuefr_labels.txt","subjectId":712},{"load_time":694263.5,"word_display_times":[694263.5,697279,700292.8999999985,703296.299999997,706314.3999999985,709318.6999999993,712328.5,715339.6999999993,718349.8999999985,721355.5999999978,724362.3999999985,727373.799999997,730377.5999999978,733402.3999999985,736414.8999999985],"word_list":["SPANDEX","ESSAY","COLUMBINE","TRACK","RUGBY","GOLF","WATERFALL","COCKROACH","FINCH","BOWLING","FIELD HOCKEY","SOFTBALL","MOUTH","CADILLAC","INDIANA"],"category_list":["FABRICS","READING MATERIALS","FLOWERS","SPORTS","SPORTS","SPORTS","GEOGRAPHY TERMS","INSECTS","BIRDS","SPORTS","SPORTS","SPORTS","BODY PARTS","CAR MODELS","STATES"],"trial_type":"item-presentation","trial_index":34,"time_elapsed":707867,"internal_node_id":"0.0-34.0","PROLIFIC ID":"67f437b7797e833603cd854e","data_path":"experiments/block_cat/block_cat.h5","stimuli_path":"experiments/block_cat/assets/cuefr_pool.txt","category_path":"experiments/block_cat/assets/cuefr_labels.txt","subjectId":712},{"load_time":739427.1999999993,"recall_display_time":739427.3999999985,"category_cue":"SPORTS","recall_responses":[["s",7978],["o",1007],["f",456]],"recall_words":["sof"],"recall_word_response_times":[7978,0],"category_target":435,"category_target_string":"TRACK","trial_type":"free-recall","trial_index":35,"time_elapsed":717876,"internal_node_id":"0.0-35.0","PROLIFIC ID":"67f437b7797e833603cd854e","data_path":"experiments/block_cat/block_cat.h5","stimuli_path":"experiments/block_cat/assets/cuefr_pool.txt","category_path":"experiments/block_cat/assets/cuefr_labels.txt","subjectId":712},{"load_time":749437.0999999978,"recall_display_time":749437.299999997,"category_cue":"","recall_responses":[["t",464],["b",280],["a",344],["l",512],["l",200],["ENTER",639],["f",3144],["i",512],["e",432],["l",560],["d",432],[" ",312],["h",360],["o",343],["c",440],["k",392],["e",439],["y",544],["ENTER",496],["b",2344],["o",392],["w",472],["l",1775],["i",280],["n",304],["g",336],["ENTER",607],["g",5048],["o",383],["l",312],["f",607],["ENTER",1160],["r",1576],["u",744],["g",400],["b",248],["y",327],["ENTER",472],["t",2552],["r",232],["a",296],["c",456],["k",424],["ENTER",391],["i",16961]],"recall_words":["tball","field hockey","bowling","golf","rugby","track","i"],"recall_word_response_times":[464,3144,2344,5048,1576,2552,16961,0],"category_target":"","category_target_string":"","trial_type":"free-recall","trial_index":36,"time_elapsed":767893,"internal_node_id":"0.0-36.0","PROLIFIC ID":"67f437b7797e833603cd854e","data_path":"experiments/block_cat/block_cat.h5","stimuli_path":"experiments/block_cat/assets/cuefr_pool.txt","category_path":"experiments/block_cat/assets/cuefr_labels.txt","subjectId":712},{"trial_type":"call-function","trial_index":37,"time_elapsed":767894,"internal_node_id":"0.0-37.0","PROLIFIC ID":"67f437b7797e833603cd854e","data_path":"experiments/block_cat/block_cat.h5","stimuli_path":"experiments/block_cat/assets/cuefr_pool.txt","category_path":"experiments/block_cat/assets/cuefr_labels.txt","subjectId":712},{"view_history":[{"page_index":0,"viewing_time":8022}],"rt":8023,"trial_index":38,"trial_count":15,"message":"<p >When you're ready to proceed, press Next.</p>","trial_type":"instructions","time_elapsed":775917,"internal_node_id":"0.0-38.0","PROLIFIC ID":"67f437b7797e833603cd854e","data_path":"experiments/block_cat/block_cat.h5","stimuli_path":"experiments/block_cat/assets/cuefr_pool.txt","category_path":"experiments/block_cat/assets/cuefr_labels.txt","subjectId":712},{"trial_type":"call-function","trial_index":39,"time_elapsed":775918,"internal_node_id":"0.0-39.0","PROLIFIC ID":"67f437b7797e833603cd854e","data_path":"experiments/block_cat/block_cat.h5","stimuli_path":"experiments/block_cat/assets/cuefr_pool.txt","category_path":"experiments/block_cat/assets/cuefr_labels.txt","subjectId":712},{"load_time":807471.5,"fixation_display_time":807471.5,"trial_type":"fixation","trial_index":40,"time_elapsed":776933,"internal_node_id":"0.0-40.0","PROLIFIC ID":"67f437b7797e833603cd854e","data_path":"experiments/block_cat/block_cat.h5","stimuli_path":"experiments/block_cat/assets/cuefr_pool.txt","category_path":"experiments/block_cat/assets/cuefr_labels.txt","subjectId":712},{"load_time":808488.0999999978,"word_display_times":[808488.0999999978,811508.3999999985,814523.6999999993,817540.799999997,820558.799999997,823571.3999999985,826578.8999999985,829595.0999999978,832602.3999999985,835612.5,838615.5,841623.1999999993,844642.299999997,847657.8999999985,850672.1999999993],"word_list":["CHINA","PONTOON","CADET","KEYBOARD","OBOE","VIOLA","ATLANTA","EUCALYPTUS","INDIGO","BANJO","TUBA","CLARINET","DRILL","TEPEE","RAINBOW TROUT"],"category_list":["COUNTRIES","SHIPS","MILITARY TITLES","INSTRUMENTS","INSTRUMENTS","INSTRUMENTS","CITIES","TREES","COLORS","INSTRUMENTS","INSTRUMENTS","INSTRUMENTS","CARPENTRY TOOLS","DWELLINGS","FISH"],"trial_type":"item-presentation","trial_index":41,"time_elapsed":822144,"internal_node_id":"0.0-41.0","PROLIFIC ID":"67f437b7797e833603cd854e","data_path":"experiments/block_cat/block_cat.h5","stimuli_path":"experiments/block_cat/assets/cuefr_pool.txt","category_path":"experiments/block_cat/assets/cuefr_labels.txt","subjectId":712},{"load_time":853703.5,"recall_display_time":853703.6999999993,"category_cue":"INSTRUMENTS","recall_responses":[["d",9348],["r",288]],"recall_words":["dr"],"recall_word_response_times":[9348,0],"category_target":330,"category_target_string":"KEYBOARD","trial_type":"free-recall","trial_index":42,"time_elapsed":832162,"internal_node_id":"0.0-42.0","PROLIFIC ID":"67f437b7797e833603cd854e","data_path":"experiments/block_cat/block_cat.h5","stimuli_path":"experiments/block_cat/assets/cuefr_pool.txt","category_path":"experiments/block_cat/assets/cuefr_labels.txt","subjectId":712},{"load_time":863721.299999997,"recall_display_time":863721.3999999985,"category_cue":"","recall_responses":[["i",218],["l",336],["l",168],["ENTER",640],["c",3096],["l",424],["a",575],["r",456],["i",536],["n",288],["e",400],["t",480],["ENTER",503],["t",2200],["u",704],["b",280],["a",383],["ENTER",512],["b",2448],["a",367],["n",864],["j",264],["o",472],["ENTER",439],["v",6504],["i",424],["o",295],["l",416],["a",432],["ENTER",624],["o",2536],["b",440],["o",352],["e",439],["ENTER",520],["k",2976],["e",408],["y",560],["b",336],["o",392],["a",632],["r",400],["d",248],["ENTER",487]],"recall_words":["ill","clarinet","tuba","banjo","viola","oboe","keyboard"],"recall_word_response_times":[218,3096,2200,2448,6504,2536,2976],"category_target":"","category_target_string":"","trial_type":"free-recall","trial_index":43,"time_elapsed":882183,"internal_node_id":"0.0-43.0","PROLIFIC ID":"67f437b7797e833603cd854e","data_path":"experiments/block_cat/block_cat.h5","stimuli_path":"experiments/block_cat/assets/cuefr_pool.txt","category_path":"experiments/block_cat/assets/cuefr_labels.txt","subjectId":712},{"trial_type":"call-function","trial_index":44,"time_elapsed":882184,"internal_node_id":"0.0-44.0","PROLIFIC ID":"67f437b7797e833603cd854e","data_path":"experiments/block_cat/block_cat.h5","stimuli_path":"experiments/block_cat/assets/cuefr_pool.txt","category_path":"experiments/block_cat/assets/cuefr_labels.txt","subjectId":712},{"view_history":[{"page_index":0,"viewing_time":4499}],"rt":4499,"trial_index":45,"trial_count":15,"message":"<p >When you're ready to proceed, press Next.</p>","trial_type":"instructions","time_elapsed":886684,"internal_node_id":"0.0-45.0","PROLIFIC ID":"67f437b7797e833603cd854e","data_path":"experiments/block_cat/block_cat.h5","stimuli_path":"experiments/block_cat/assets/cuefr_pool.txt","category_path":"experiments/block_cat/assets/cuefr_labels.txt","subjectId":712},{"trial_type":"call-function","trial_index":46,"time_elapsed":886684,"internal_node_id":"0.0-46.0","PROLIFIC ID":"67f437b7797e833603cd854e","data_path":"experiments/block_cat/block_cat.h5","stimuli_path":"experiments/block_cat/assets/cuefr_pool.txt","category_path":"experiments/block_cat/assets/cuefr_labels.txt","subjectId":712},{"load_time":918238,"fixation_display_time":918238,"trial_type":"fixation","trial_index":47,"time_elapsed":887700,"internal_node_id":"0.0-47.0","PROLIFIC ID":"67f437b7797e833603cd854e","data_path":"experiments/block_cat/block_cat.h5","stimuli_path":"experiments/block_cat/assets/cuefr_pool.txt","category_path":"experiments/block_cat/assets/cuefr_labels.txt","subjectId":712},{"load_time":919257,"word_display_times":[919257.0999999978,922274.6999999993,925281.6999999993,928309.6999999993,931311.799999997,934324.5,937340.1999999993,940352,943356.6999999993,946363.299999997,949381.1999999993,952409.1999999993,955426.299999997,958453.1999999993,961455.5999999978],"word_list":["CALCIUM","WATER POLO","MANGO","MAZDA","CADILLAC","LAMBORGHINI","DESERT","FINCH","WIND","NISSAN","VOLKSWAGEN","HYUNDAI","HIP","ENGINEER","NUTMEG"],"category_list":["ELEMENTS","SPORTS","FRUIT","CAR MODELS","CAR MODELS","CAR MODELS","GEOGRAPHY TERMS","BIRDS","WEATHER TERMS","CAR MODELS","CAR MODELS","CAR MODELS","BODY PARTS","OCCUPATIONS","SEASONINGS"],"trial_type":"item-presentation","trial_index":48,"time_elapsed":932920,"internal_node_id":"0.0-48.0","PROLIFIC ID":"67f437b7797e833603cd854e","data_path":"experiments/block_cat/block_cat.h5","stimuli_path":"experiments/block_cat/assets/cuefr_pool.txt","category_path":"experiments/block_cat/assets/cuefr_labels.txt","subjectId":712},{"load_time":964478.5,"recall_display_time":964478.6999999993,"category_cue":"","recall_responses":[["m",4484],["a",455],["z",288],["d",568],["a",248],["ENTER",503]],"recall_words":["mazda"],"recall_word_response_times":[4484],"category_target":0,"category_target_string":"","trial_type":"free-recall","trial_index":49,"time_elapsed":939473,"internal_node_id":"0.0-49.0","PROLIFIC ID":"67f437b7797e833603cd854e","data_path":"experiments/block_cat/block_cat.h5","stimuli_path":"experiments/block_cat/assets/cuefr_pool.txt","category_path":"experiments/block_cat/assets/cuefr_labels.txt","subjectId":712},{"load_time":971028.0999999978,"recall_display_time":971028.1999999993,"category_cue":"","recall_responses":[["e",2374],["n",719],["g",360],["i",456],["n",367],["e",408],["e",176],["r",216],["ENTER",888],["v",552],["o",736],["l",304],["k",528],["s",664],["w",320],["a",240],["g",888],["e",312],["n",1023],["ENTER",624],["h",2752],["i",328],["p",560],["ENTER",623],["h",2424],["y",272],["u",224],["n",312],["d",583],["a",288],["i",576],["ENTER",687],["n",3160],["i",504],["s",472],["s",176],["a",224],["n",568],["ENTER",407],["w",2232],["i",624],["n",304],["f",344],["backspace",832],["d",456],["ENTER",495],["f",2664],["i",456],["n",312],["c",471],["h",352],["ENTER",520],["d",3144],["e",263],["s",295],["s",169],["e",248],["r",248],["t",415],["ENTER",648],["l",2752],["a",511],["m",560],["b",360],["o",392],["r",1263],["c",1104]],"recall_words":["engineer","volkswagen","hip","hyundai","nissan","wind","finch","dessert","lamborc"],"recall_word_response_times":[2374,552,2752,2424,3160,2232,2664,3144,2752,0],"category_target":"","category_target_string":"","trial_type":"free-recall","trial_index":50,"time_elapsed":989477,"internal_node_id":"0.0-50.0","PROLIFIC ID":"67f437b7797e833603cd854e","data_path":"experiments/block_cat/block_cat.h5","stimuli_path":"experiments/block_cat/assets/cuefr_pool.txt","category_path":"experiments/block_cat/assets/cuefr_labels.txt","subjectId":712},{"trial_type":"call-function","trial_index":51,"time_elapsed":989478,"internal_node_id":"0.0-51.0","PROLIFIC ID":"67f437b7797e833603cd854e","data_path":"experiments/block_cat/block_cat.h5","stimuli_path":"experiments/block_cat/assets/cuefr_pool.txt","category_path":"experiments/block_cat/assets/cuefr_labels.txt","subjectId":712},{"view_history":[{"page_index":0,"viewing_time":11275}],"rt":11276,"trial_index":52,"trial_count":15,"message":"<p >When you're ready to proceed, press Next.</p>","trial_type":"instructions","time_elapsed":1000754,"internal_node_id":"0.0-52.0","PROLIFIC ID":"67f437b7797e833603cd854e","data_path":"experiments/block_cat/block_cat.h5","stimuli_path":"experiments/block_cat/assets/cuefr_pool.txt","category_path":"experiments/block_cat/assets/cuefr_labels.txt","subjectId":712},{"trial_type":"call-function","trial_index":53,"time_elapsed":1000755,"internal_node_id":"0.0-53.0","PROLIFIC ID":"67f437b7797e833603cd854e","data_path":"experiments/block_cat/block_cat.h5","stimuli_path":"experiments/block_cat/assets/cuefr_pool.txt","category_path":"experiments/block_cat/assets/cuefr_labels.txt","subjectId":712},{"load_time":1032308.5999999978,"fixation_display_time":1032308.5999999978,"trial_type":"fixation","trial_index":54,"time_elapsed":1001759,"internal_node_id":"0.0-54.0","PROLIFIC ID":"67f437b7797e833603cd854e","data_path":"experiments/block_cat/block_cat.h5","stimuli_path":"experiments/block_cat/assets/cuefr_pool.txt","category_path":"experiments/block_cat/assets/cuefr_labels.txt","subjectId":712},{"load_time":1033315.5,"word_display_times":[1033315.5,1036334.8999999985,1039363.5999999978,1042371.8999999985,1045401.6999999993,1048412.0999999978,1051426.5,1054452.8999999985,1057474.6999999993,1060493.6999999993,1063516.299999997,1066525,1069542.0999999978,1072559.3999999985,1075566.799999997],"word_list":["NAIL GUN","PIRANHA","EVERGREEN","PAJAMAS","VEST","T-SHIRT","RABBIT","CLARINET","AFGHANISTAN","DRESS","TIE","SCARF","STOVE","SAN DIEGO","HOTEL"],"category_list":["CARPENTRY TOOLS","FISH","TREES","CLOTHES","CLOTHES","CLOTHES","FOUR-FOOTED ANIMALS","INSTRUMENTS","COUNTRIES","CLOTHES","CLOTHES","CLOTHES","KITCHEN TOOLS","CITIES","DWELLINGS"],"trial_type":"item-presentation","trial_index":55,"time_elapsed":1047031,"internal_node_id":"0.0-55.0","PROLIFIC ID":"67f437b7797e833603cd854e","data_path":"experiments/block_cat/block_cat.h5","stimuli_path":"experiments/block_cat/assets/cuefr_pool.txt","category_path":"experiments/block_cat/assets/cuefr_labels.txt","subjectId":712},{"load_time":1078590.5999999978,"recall_display_time":1078590.6999999993,"category_cue":"CLOTHES","recall_responses":[["s",4154],["c",263],["a",344],["r",656],["f",296],["ENTER",607]],"recall_words":["scarf"],"recall_word_response_times":[4154],"category_target":116,"category_target_string":"PAJAMAS","trial_type":"free-recall","trial_index":56,"time_elapsed":1053359,"internal_node_id":"0.0-56.0","PROLIFIC ID":"67f437b7797e833603cd854e","data_path":"experiments/block_cat/block_cat.h5","stimuli_path":"experiments/block_cat/assets/cuefr_pool.txt","category_path":"experiments/block_cat/assets/cuefr_labels.txt","subjectId":712},{"load_time":1084914.5,"recall_display_time":1084914.5999999978,"category_cue":"","recall_responses":[["t",669],["i",496],["e",408],["ENTER",624],["d",912],["r",248],["e",256],["s",239],["s",160],["ENTER",728],["t",13416],[" ",503],["s",1048],["h",664],["i",343],["r",448],["t",216],["ENTER",504],["v",2433],["e",776],["s",264],["t",407],["ENTER",528],["p",2976],["a",504],["j",456],["a",448],["m",552],["a",432],["s",256],["ENTER",1119],["r",12520],["a",343],["b",600],["b",184],["i",416],["t",376],["ENTER",528]],"recall_words":["tie","dress","t shirt","vest","pajamas","rabbit"],"recall_word_response_times":[669,912,13416,2433,2976,12520],"category_target":"","category_target_string":"","trial_type":"free-recall","trial_index":57,"time_elapsed":1103369,"internal_node_id":"0.0-57.0","PROLIFIC ID":"67f437b7797e833603cd854e","data_path":"experiments/block_cat/block_cat.h5","stimuli_path":"experiments/block_cat/assets/cuefr_pool.txt","category_path":"experiments/block_cat/assets/cuefr_labels.txt","subjectId":712},{"trial_type":"call-function","trial_index":58,"time_elapsed":1103370,"internal_node_id":"0.0-58.0","PROLIFIC ID":"67f437b7797e833603cd854e","data_path":"experiments/block_cat/block_cat.h5","stimuli_path":"experiments/block_cat/assets/cuefr_pool.txt","category_path":"experiments/block_cat/assets/cuefr_labels.txt","subjectId":712},{"view_history":[{"page_index":0,"viewing_time":8997}],"rt":8998,"trial_index":59,"trial_count":15,"message":"<p >When you're ready to proceed, press Next.</p>","trial_type":"instructions","time_elapsed":1112369,"internal_node_id":"0.0-59.0","PROLIFIC ID":"67f437b7797e833603cd854e","data_path":"experiments/block_cat/block_cat.h5","stimuli_path":"experiments/block_cat/assets/cuefr_pool.txt","category_path":"experiments/block_cat/assets/cuefr_labels.txt","subjectId":712},{"trial_type":"call-function","trial_index":60,"time_elapsed":1112369,"internal_node_id":"0.0-60.0","PROLIFIC ID":"67f437b7797e833603cd854e","data_path":"experiments/block_cat/block_cat.h5","stimuli_path":"experiments/block_cat/assets/cuefr_pool.txt","category_path":"experiments/block_cat/assets/cuefr_labels.txt","subjectId":712},{"load_time":1143922.8999999985,"fixation_display_time":1143922.8999999985,"trial_type":"fixation","trial_index":61,"time_elapsed":1113380,"internal_node_id":"0.0-61.0","PROLIFIC ID":"67f437b7797e833603cd854e","data_path":"experiments/block_cat/block_cat.h5","stimuli_path":"experiments/block_cat/assets/cuefr_pool.txt","category_path":"experiments/block_cat/assets/cuefr_labels.txt","subjectId":712},{"load_time":1144936.1999999993,"word_display_times":[1144936.1999999993,1147958.5999999978,1150962.1999999993,1153978.8999999985,1156993.299999997,1160003.8999999985,1163008.0999999978,1166021.0999999978,1169035.5999999978,1172050.8999999985,1175053.799999997,1178063.799999997,1181078.8999999985,1184099,1187114.5],"word_list":["POTATO","COLUMBINE","PORSCHE","SNOW","DROUGHT","TIDAL WAVE","SOFA","BOXING","MAGNESIUM","TYPHOON","SUNSHINE","LIGHTNING","TUGBOAT","CHARTREUSE","CURRY"],"category_list":["VEGETABLES","FLOWERS","CAR MODELS","WEATHER TERMS","WEATHER TERMS","WEATHER TERMS","FURNITURE","SPORTS","ELEMENTS","WEATHER TERMS","WEATHER TERMS","WEATHER TERMS","SHIPS","COLORS","SEASONINGS"],"trial_type":"item-presentation","trial_index":62,"time_elapsed":1158576,"internal_node_id":"0.0-62.0","PROLIFIC ID":"67f437b7797e833603cd854e","data_path":"experiments/block_cat/block_cat.h5","stimuli_path":"experiments/block_cat/assets/cuefr_pool.txt","category_path":"experiments/block_cat/assets/cuefr_labels.txt","subjectId":712},{"load_time":1190135.0999999978,"recall_display_time":1190135.1999999993,"category_cue":"SPORTS","recall_responses":[],"recall_words":[],"recall_word_response_times":[],"category_target":424,"category_target_string":"BOXING","trial_type":"free-recall","trial_index":63,"time_elapsed":1168587,"internal_node_id":"0.0-63.0","PROLIFIC ID":"67f437b7797e833603cd854e","data_path":"experiments/block_cat/block_cat.h5","stimuli_path":"experiments/block_cat/assets/cuefr_pool.txt","category_path":"experiments/block_cat/assets/cuefr_labels.txt","subjectId":712},{"load_time":1200145.8999999985,"recall_display_time":1200146.1999999993,"category_cue":"","recall_responses":[["b",2157],["o",479],["x",680],["i",424],["n",296],["g",295],["ENTER",472]],"recall_words":["boxing"],"recall_word_response_times":[2157],"category_target":"","category_target_string":"","trial_type":"free-recall","trial_index":64,"time_elapsed":1218604,"internal_node_id":"0.0-64.0","PROLIFIC ID":"67f437b7797e833603cd854e","data_path":"experiments/block_cat/block_cat.h5","stimuli_path":"experiments/block_cat/assets/cuefr_pool.txt","category_path":"experiments/block_cat/assets/cuefr_labels.txt","subjectId":712},{"trial_type":"call-function","trial_index":65,"time_elapsed":1218604,"internal_node_id":"0.0-65.0","PROLIFIC ID":"67f437b7797e833603cd854e","data_path":"experiments/block_cat/block_cat.h5","stimuli_path":"experiments/block_cat/assets/cuefr_pool.txt","category_path":"experiments/block_cat/assets/cuefr_labels.txt","subjectId":712},{"view_history":[{"page_index":0,"viewing_time":10866}],"rt":10866,"trial_index":66,"trial_count":15,"message":"<p >When you're ready to proceed, press Next.</p>","trial_type":"instructions","time_elapsed":1229471,"internal_node_id":"0.0-66.0","PROLIFIC ID":"67f437b7797e833603cd854e","data_path":"experiments/block_cat/block_cat.h5","stimuli_path":"experiments/block_cat/assets/cuefr_pool.txt","category_path":"experiments/block_cat/assets/cuefr_labels.txt","subjectId":712},{"trial_type":"call-function","trial_index":67,"time_elapsed":1229472,"internal_node_id":"0.0-67.0","PROLIFIC ID":"67f437b7797e833603cd854e","data_path":"experiments/block_cat/block_cat.h5","stimuli_path":"experiments/block_cat/assets/cuefr_pool.txt","category_path":"experiments/block_cat/assets/cuefr_labels.txt","subjectId":712},{"load_time":1261025.3999999985,"fixation_display_time":1261025.3999999985,"trial_type":"fixation","trial_index":68,"time_elapsed":1230485,"internal_node_id":"0.0-68.0","PROLIFIC ID":"67f437b7797e833603cd854e","data_path":"experiments/block_cat/block_cat.h5","stimuli_path":"experiments/block_cat/assets/cuefr_pool.txt","category_path":"experiments/block_cat/assets/cuefr_labels.txt","subjectId":712},{"load_time":1262041.1999999993,"word_display_times":[1262041.1999999993,1265052,1268065.5999999978,1271069.8999999985,1274090.0999999978,1277114.1999999993,1280133.5999999978,1283154.8999999985,1286175.5,1289196.5999999978,1292212.5,1295214.5999999978,1298234.299999997,1301241.6999999993,1304257.6999999993],"word_list":["MOUNTAIN DEW","TROMBONE","SCOTLAND","FLEECE","NYLON","CLOTH","HEMLOCK","SHORTS","TEXTBOOK","LINEN","CASHMERE","SUEDE","WATERMELON","WRENCH","CONDOMINIUM"],"category_list":["BEVERAGES","INSTRUMENTS","COUNTRIES","FABRICS","FABRICS","FABRICS","TREES","CLOTHES","READING MATERIALS","FABRICS","FABRICS","FABRICS","FRUIT","CARPENTRY TOOLS","DWELLINGS"],"trial_type":"item-presentation","trial_index":69,"time_elapsed":1275734,"internal_node_id":"0.0-69.0","PROLIFIC ID":"67f437b7797e833603cd854e","data_path":"experiments/block_cat/block_cat.h5","stimuli_path":"experiments/block_cat/assets/cuefr_pool.txt","category_path":"experiments/block_cat/assets/cuefr_labels.txt","subjectId":712},{"load_time":1307293.799999997,"recall_display_time":1307293.8999999985,"category_cue":"INSTRUMENTS","recall_responses":[],"recall_words":[],"recall_word_response_times":[],"category_target":334,"category_target_string":"TROMBONE","trial_type":"free-recall","trial_index":70,"time_elapsed":1285745,"internal_node_id":"0.0-70.0","PROLIFIC ID":"67f437b7797e833603cd854e","data_path":"experiments/block_cat/block_cat.h5","stimuli_path":"experiments/block_cat/assets/cuefr_pool.txt","category_path":"experiments/block_cat/assets/cuefr_labels.txt","subjectId":712},{"load_time":1317304.8999999985,"recall_display_time":1317305,"category_cue":"","recall_responses":[["t",1565],["e",415],["x",320],["t",400],["b",400],["o",423],["o",176],["k",224],["ENTER",783],["t",8264],["r",791],["o",624],["m",328],["b",336],["o",424],["n",344],["e",416],["ENTER",591],["c",13128],["o",623],["n",440],["d",432],["o",696],["m",1792],["i",336],["n",336],["i",328],["u",256],["m",272],["ENTER",2495]],"recall_words":["textbook","trombone","condominium"],"recall_word_response_times":[1565,8264,13128],"category_target":"","category_target_string":"","trial_type":"free-recall","trial_index":71,"time_elapsed":1335754,"internal_node_id":"0.0-71.0","PROLIFIC ID":"67f437b7797e833603cd854e","data_path":"experiments/block_cat/block_cat.h5","stimuli_path":"experiments/block_cat/assets/cuefr_pool.txt","category_path":"experiments/block_cat/assets/cuefr_labels.txt","subjectId":712},{"trial_type":"call-function","trial_index":72,"time_elapsed":1335754,"internal_node_id":"0.0-72.0","PROLIFIC ID":"67f437b7797e833603cd854e","data_path":"experiments/block_cat/block_cat.h5","stimuli_path":"experiments/block_cat/assets/cuefr_pool.txt","category_path":"experiments/block_cat/assets/cuefr_labels.txt","subjectId":712},{"view_history":[{"page_index":0,"viewing_time":6323}],"rt":6323,"trial_index":73,"trial_count":15,"message":"<p >When you're ready to proceed, press Next.</p>","trial_type":"instructions","time_elapsed":1342077,"internal_node_id":"0.0-73.0","PROLIFIC ID":"67f437b7797e833603cd854e","data_path":"experiments/block_cat/block_cat.h5","stimuli_path":"experiments/block_cat/assets/cuefr_pool.txt","category_path":"experiments/block_cat/assets/cuefr_labels.txt","subjectId":712},{"trial_type":"call-function","trial_index":74,"time_elapsed":1342078,"internal_node_id":"0.0-74.0","PROLIFIC ID":"67f437b7797e833603cd854e","data_path":"experiments/block_cat/block_cat.h5","stimuli_path":"experiments/block_cat/assets/cuefr_pool.txt","category_path":"experiments/block_cat/assets/cuefr_labels.txt","subjectId":712},{"load_time":1373631.5,"fixation_display_time":1373631.5,"trial_type":"fixation","trial_index":75,"time_elapsed":1343090,"internal_node_id":"0.0-75.0","PROLIFIC ID":"67f437b7797e833603cd854e","data_path":"experiments/block_cat/block_cat.h5","stimuli_path":"experiments/block_cat/assets/cuefr_pool.txt","category_path":"experiments/block_cat/assets/cuefr_labels.txt","subjectId":712},{"load_time":1374645.799999997,"word_display_times":[1374645.799999997,1377660.3999999985,1380667.299999997,1383676.0999999978,1386688.1999999993,1389705.799999997,1392717.5999999978,1395728.3999999985,1398747,1401769.5,1404782.5,1407792.799999997,1410807.6999999993,1413828.1999999993,1416843],"word_list":["CELLAR","PHILADELPHIA","PIRANHA","HAMSTER","RABBIT","SHEEP","DROUGHT","MOSQUITO","MOUTH","PIG","CHEETAH","TURTLE","BLENDER","BOOKCASE","PORSCHE"],"category_list":["BUILDING PARTS","CITIES","FISH","FOUR-FOOTED ANIMALS","FOUR-FOOTED ANIMALS","FOUR-FOOTED ANIMALS","WEATHER TERMS","INSECTS","BODY PARTS","FOUR-FOOTED ANIMALS","FOUR-FOOTED ANIMALS","FOUR-FOOTED ANIMALS","KITCHEN TOOLS","FURNITURE","CAR MODELS"],"trial_type":"item-presentation","trial_index":76,"time_elapsed":1388318,"internal_node_id":"0.0-76.0","PROLIFIC ID":"67f437b7797e833603cd854e","data_path":"experiments/block_cat/block_cat.h5","stimuli_path":"experiments/block_cat/assets/cuefr_pool.txt","category_path":"experiments/block_cat/assets/cuefr_labels.txt","subjectId":712},{"load_time":1419877.0999999978,"recall_display_time":1419877.299999997,"category_cue":"FOUR-FOOTED ANIMALS","recall_responses":[],"recall_words":[],"recall_word_response_times":[],"category_target":243,"category_target_string":"HAMSTER","trial_type":"free-recall","trial_index":77,"time_elapsed":1398330,"internal_node_id":"0.0-77.0","PROLIFIC ID":"67f437b7797e833603cd854e","data_path":"experiments/block_cat/block_cat.h5","stimuli_path":"experiments/block_cat/assets/cuefr_pool.txt","category_path":"experiments/block_cat/assets/cuefr_labels.txt","subjectId":712},{"load_time":1429890.0999999978,"recall_display_time":1429890.1999999993,"category_cue":"","recall_responses":[["t",97],["backspace",1328],["t",1144],["u",432],["r",464],["t",287],["l",816],["e",448],["ENTER",591],["c",3584],["h",352],["e",384],["e",152],["t",536],["a",303],["h",584],["ENTER",535],["p",2504],["i",416],["g",792],["ENTER",640],["s",6504],["h",647],["e",368],["e",176],["p",504],["ENTER",1375],["r",3040],["a",352],["b",599],["b",176],["i",296],["t",368],["ENTER",544],["h",3160],["a",368],["m",480],["s",447],["t",391],["e",720],["r",384],["ENTER",839]],"recall_words":["turtle","cheetah","pig","sheep","rabbit","hamster"],"recall_word_response_times":[97,3584,2504,6504,3040,3160],"category_target":"","category_target_string":"","trial_type":"free-recall","trial_index":78,"time_elapsed":1448347,"internal_node_id":"0.0-78.0","PROLIFIC ID":"67f437b7797e833603cd854e","data_path":"experiments/block_cat/block_cat.h5","stimuli_path":"experiments/block_cat/assets/cuefr_pool.txt","category_path":"experiments/block_cat/assets/cuefr_labels.txt","subjectId":712},{"trial_type":"call-function","trial_index":79,"time_elapsed":1448348,"internal_node_id":"0.0-79.0","PROLIFIC ID":"67f437b7797e833603cd854e","data_path":"experiments/block_cat/block_cat.h5","stimuli_path":"experiments/block_cat/assets/cuefr_pool.txt","category_path":"experiments/block_cat/assets/cuefr_labels.txt","subjectId":712},{"view_history":[{"page_index":0,"viewing_time":9967}],"rt":9967,"trial_index":80,"trial_count":15,"message":"<p >When you're ready to proceed, press Next.</p>","trial_type":"instructions","time_elapsed":1458316,"internal_node_id":"0.0-80.0","PROLIFIC ID":"67f437b7797e833603cd854e","data_path":"experiments/block_cat/block_cat.h5","stimuli_path":"experiments/block_cat/assets/cuefr_pool.txt","category_path":"experiments/block_cat/assets/cuefr_labels.txt","subjectId":712},{"trial_type":"call-function","trial_index":81,"time_elapsed":1458316,"internal_node_id":"0.0-81.0","PROLIFIC ID":"67f437b7797e833603cd854e","data_path":"experiments/block_cat/block_cat.h5","stimuli_path":"experiments/block_cat/assets/cuefr_pool.txt","category_path":"experiments/block_cat/assets/cuefr_labels.txt","subjectId":712},{"load_time":1489870.0999999978,"fixation_display_time":1489870.0999999978,"trial_type":"fixation","trial_index":82,"time_elapsed":1459328,"internal_node_id":"0.0-82.0","PROLIFIC ID":"67f437b7797e833603cd854e","data_path":"experiments/block_cat/block_cat.h5","stimuli_path":"experiments/block_cat/assets/cuefr_pool.txt","category_path":"experiments/block_cat/assets/cuefr_labels.txt","subjectId":712},{"load_time":1490883,"word_display_times":[1490883,1493890.5,1496892.1999999993,1499897.799999997,1502918.5999999978,1505927.6999999993,1508938.3999999985,1511955.1999999993,1514967.5,1517990.299999997,1521014.1999999993,1524029.8999999985,1527049.799999997,1530064.6999999993,1533074.0999999978],"word_list":["TABASCO","YACHT","INDIA","BUSINESSPERSON","BANKER","DENTIST","ELM","ORCHID","HELIUM","PROFESSOR","CARPENTER","JANITOR","POTATO","OCEAN","SOLDIER"],"category_list":["SEASONINGS","SHIPS","COUNTRIES","OCCUPATIONS","OCCUPATIONS","OCCUPATIONS","TREES","FLOWERS","ELEMENTS","OCCUPATIONS","OCCUPATIONS","OCCUPATIONS","VEGETABLES","GEOGRAPHY TERMS","MILITARY TITLES"],"trial_type":"item-presentation","trial_index":83,"time_elapsed":1504531,"internal_node_id":"0.0-83.0","PROLIFIC ID":"67f437b7797e833603cd854e","data_path":"experiments/block_cat/block_cat.h5","stimuli_path":"experiments/block_cat/assets/cuefr_pool.txt","category_path":"experiments/block_cat/assets/cuefr_labels.txt","subjectId":712},{"load_time":1536090.799999997,"recall_display_time":1536091,"category_cue":"","recall_responses":[["s",5584],["o",1151],["l",248],["d",456],["i",448],["e",432],["r",192],["ENTER",487]],"recall_words":["soldier"],"recall_word_response_times":[5584],"category_target":0,"category_target_string":"","trial_type":"free-recall","trial_index":84,"time_elapsed":1513537,"internal_node_id":"0.0-84.0","PROLIFIC ID":"67f437b7797e833603cd854e","data_path":"experiments/block_cat/block_cat.h5","stimuli_path":"experiments/block_cat/assets/cuefr_pool.txt","category_path":"experiments/block_cat/assets/cuefr_labels.txt","subjectId":712},{"load_time":1545092.0999999978,"recall_display_time":1545092.299999997,"category_cue":"","recall_responses":[["o",2085],["c",416],["e",424],["a",288],["n",455],["ENTER",392],["p",1920],["o",231],["t",416],["a",424],["t",384],["o",472],["ENTER",879],["j",2560],["a",439],["n",568],["i",345],["t",368],["o",456],["r",376],["ENTER",655],["c",2192],["a",328],["r",656],["p",464],["e",504],["n",848],["t",328],["e",304],["r",240],["ENTER",639],["p",2112],["r",1232],["o",440],["f",568],["f",208],["e",263],["s",248],["s",160],["o",416],["r",488],["ENTER",479],["h",2440],["e",416],["l",512],["i",327],["u",288],["m",688],["ENTER",607],["o",2048],["r",463],["c",424],["h",327],["i",328],["d",408],["ENTER",1184],["e",2512],["l",623],["m",360],["ENTER",472],["d",4680],["e",256],["n",576],["t",352],["i",544],["s",392],["t",368]],"recall_words":["ocean","potato","janitor","carpenter","proffessor","helium","orchid","elm","dentist"],"recall_word_response_times":[2085,1920,2560,2192,2112,2440,2048,2512,4680,0],"category_target":"","category_target_string":"","trial_type":"free-recall","trial_index":85,"time_elapsed":1563545,"internal_node_id":"0.0-85.0","PROLIFIC ID":"67f437b7797e833603cd854e","data_path":"experiments/block_cat/block_cat.h5","stimuli_path":"experiments/block_cat/assets/cuefr_pool.txt","category_path":"experiments/block_cat/assets/cuefr_labels.txt","subjectId":712},{"trial_type":"call-function","trial_index":86,"time_elapsed":1563546,"internal_node_id":"0.0-86.0","PROLIFIC ID":"67f437b7797e833603cd854e","data_path":"experiments/block_cat/block_cat.h5","stimuli_path":"experiments/block_cat/assets/cuefr_pool.txt","category_path":"experiments/block_cat/assets/cuefr_labels.txt","subjectId":712},{"view_history":[{"page_index":0,"viewing_time":4167}],"rt":4167,"trial_index":87,"trial_count":15,"message":"<p >When you're ready to proceed, press Next.</p>","trial_type":"instructions","time_elapsed":1567714,"internal_node_id":"0.0-87.0","PROLIFIC ID":"67f437b7797e833603cd854e","data_path":"experiments/block_cat/block_cat.h5","stimuli_path":"experiments/block_cat/assets/cuefr_pool.txt","category_path":"experiments/block_cat/assets/cuefr_labels.txt","subjectId":712},{"trial_type":"call-function","trial_index":88,"time_elapsed":1567715,"internal_node_id":"0.0-88.0","PROLIFIC ID":"67f437b7797e833603cd854e","data_path":"experiments/block_cat/block_cat.h5","stimuli_path":"experiments/block_cat/assets/cuefr_pool.txt","category_path":"experiments/block_cat/assets/cuefr_labels.txt","subjectId":712},{"load_time":1599268.5,"fixation_display_time":1599268.5,"trial_type":"fixation","trial_index":89,"time_elapsed":1568725,"internal_node_id":"0.0-89.0","PROLIFIC ID":"67f437b7797e833603cd854e","data_path":"experiments/block_cat/block_cat.h5","stimuli_path":"experiments/block_cat/assets/cuefr_pool.txt","category_path":"experiments/block_cat/assets/cuefr_labels.txt","subjectId":712},{"load_time":1600281.6999999993,"word_display_times":[1600281.6999999993,1603307.299999997,1606317.0999999978,1609331.5999999978,1612351.299999997,1615365.0999999978,1618369.799999997,1621373.8999999985,1624386.5,1627391,1630406.5999999978,1633434.1999999993,1636453.5999999978,1639463.8999999985,1642488.1999999993],"word_list":["CEILING","SHORTS","LADY BUG","CONDOMINIUM","MANSION","TOWNHOUSE","CHISEL","SCARLET","VIOLA","TRAILER","HUT","BUNGALOW","TEXTBOOK","STRAINER","HAWK"],"category_list":["BUILDING PARTS","CLOTHES","INSECTS","DWELLINGS","DWELLINGS","DWELLINGS","CARPENTRY TOOLS","COLORS","INSTRUMENTS","DWELLINGS","DWELLINGS","DWELLINGS","READING MATERIALS","KITCHEN TOOLS","BIRDS"],"trial_type":"item-presentation","trial_index":90,"time_elapsed":1613948,"internal_node_id":"0.0-90.0","PROLIFIC ID":"67f437b7797e833603cd854e","data_path":"experiments/block_cat/block_cat.h5","stimuli_path":"experiments/block_cat/assets/cuefr_pool.txt","category_path":"experiments/block_cat/assets/cuefr_labels.txt","subjectId":712},{"load_time":1645508,"recall_display_time":1645508.299999997,"category_cue":"KITCHEN TOOLS","recall_responses":[["s",6669],["t",951],["r",240],["a",296],["i",624],["n",280],["e",376],["r",248]],"recall_words":["strainer"],"recall_word_response_times":[6669,0],"category_target":349,"category_target_string":"STRAINER","trial_type":"free-recall","trial_index":91,"time_elapsed":1623963,"internal_node_id":"0.0-91.0","PROLIFIC ID":"67f437b7797e833603cd854e","data_path":"experiments/block_cat/block_cat.h5","stimuli_path":"experiments/block_cat/assets/cuefr_pool.txt","category_path":"experiments/block_cat/assets/cuefr_labels.txt","subjectId":712},{"load_time":1655522,"recall_display_time":1655522.0999999978,"category_cue":"","recall_responses":[],"recall_words":[],"recall_word_response_times":[],"category_target":"","category_target_string":"","trial_type":"free-recall","trial_index":92,"time_elapsed":1673977,"internal_node_id":"0.0-92.0","PROLIFIC ID":"67f437b7797e833603cd854e","data_path":"experiments/block_cat/block_cat.h5","stimuli_path":"experiments/block_cat/assets/cuefr_pool.txt","category_path":"experiments/block_cat/assets/cuefr_labels.txt","subjectId":712},{"trial_type":"call-function","trial_index":93,"time_elapsed":1673977,"internal_node_id":"0.0-93.0","PROLIFIC ID":"67f437b7797e833603cd854e","data_path":"experiments/block_cat/block_cat.h5","stimuli_path":"experiments/block_cat/assets/cuefr_pool.txt","category_path":"experiments/block_cat/assets/cuefr_labels.txt","subjectId":712},{"view_history":[{"page_index":0,"viewing_time":4902}],"rt":4903,"trial_index":94,"trial_count":15,"message":"<p >When you're ready to proceed, press Next.</p>","trial_type":"instructions","time_elapsed":1678881,"internal_node_id":"0.0-94.0","PROLIFIC ID":"67f437b7797e833603cd854e","data_path":"experiments/block_cat/block_cat.h5","stimuli_path":"experiments/block_cat/assets/cuefr_pool.txt","category_path":"experiments/block_cat/assets/cuefr_labels.txt","subjectId":712},{"trial_type":"call-function","trial_index":95,"time_elapsed":1678881,"internal_node_id":"0.0-95.0","PROLIFIC ID":"67f437b7797e833603cd854e","data_path":"experiments/block_cat/block_cat.h5","stimuli_path":"experiments/block_cat/assets/cuefr_pool.txt","category_path":"experiments/block_cat/assets/cuefr_labels.txt","subjectId":712},{"load_time":1710435.299999997,"fixation_display_time":1710435.299999997,"trial_type":"fixation","trial_index":96,"time_elapsed":1679884,"internal_node_id":"0.0-96.0","PROLIFIC ID":"67f437b7797e833603cd854e","data_path":"experiments/block_cat/block_cat.h5","stimuli_path":"experiments/block_cat/assets/cuefr_pool.txt","category_path":"experiments/block_cat/assets/cuefr_labels.txt","subjectId":712},{"load_time":1711441,"word_display_times":[1711441,1714462.0999999978,1717473.5,1720489.5999999978,1723512.3999999985,1726532.1999999993,1729549.6999999993,1732556.799999997,1735560.0999999978,1738563.299999997,1741566.799999997,1744584.5,1747611.799999997,1750638.0999999978,1753659.3999999985],"word_list":["FERRARI","SUGAR","MILK","LACROSSE","SOFTBALL","GYMNASTICS","GLACIER","IOWA","SWORDFISH","WRESTLING","WATER POLO","VOLLEYBALL","HONEYDEW","COLUMBINE","SPINACH"],"category_list":["CAR MODELS","SEASONINGS","BEVERAGES","SPORTS","SPORTS","SPORTS","GEOGRAPHY TERMS","STATES","FISH","SPORTS","SPORTS","SPORTS","FRUIT","FLOWERS","VEGETABLES"],"trial_type":"item-presentation","trial_index":97,"time_elapsed":1725112,"internal_node_id":"0.0-97.0","PROLIFIC ID":"67f437b7797e833603cd854e","data_path":"experiments/block_cat/block_cat.h5","stimuli_path":"experiments/block_cat/assets/cuefr_pool.txt","category_path":"experiments/block_cat/assets/cuefr_labels.txt","subjectId":712},{"load_time":1756672.8999999985,"recall_display_time":1756673.1999999993,"category_cue":"SPORTS","recall_responses":[["v",7598],["o",503],["l",264],["l",168],["e",520],["y",607],["v",304]],"recall_words":["volleyv"],"recall_word_response_times":[7598,0],"category_target":429,"category_target_string":"LACROSSE","trial_type":"free-recall","trial_index":98,"time_elapsed":1735124,"internal_node_id":"0.0-98.0","PROLIFIC ID":"67f437b7797e833603cd854e","data_path":"experiments/block_cat/block_cat.h5","stimuli_path":"experiments/block_cat/assets/cuefr_pool.txt","category_path":"experiments/block_cat/assets/cuefr_labels.txt","subjectId":712},{"load_time":1766683.5,"recall_display_time":1766683.5999999978,"category_cue":"","recall_responses":[["b",512],["a",359],["l",576],["l",176],["ENTER",295],["w",3864],["a",248],["t",480],["e",264],["r",232],[" ",776],["p",400],["o",264],["l",216],["o",200],["ENTER",560],["w",2416],["r",488],["e",247],["s",224],["t",424],["l",768],["i",280],["n",304],["g",376],["ENTER",495],["g",6145],["y",311],["m",504],["n",1800],["a",472],["s",296],["t",407],["i",504],["c",400],["s",288],["ENTER",543],["s",3120],["o",624],["f",407],["t",288],["b",336],["a",375],["l",688],["l",184],["ENTER",319],["l",3152],["a",512],["c",1432],["r",320],["o",455],["s",408],["s",176],["e",208],["ENTER",432]],"recall_words":["ball","water polo","wrestling","gymnastics","softball","lacrosse"],"recall_word_response_times":[512,3864,2416,6145,3120,3152],"category_target":"","category_target_string":"","trial_type":"free-recall","trial_index":99,"time_elapsed":1785134,"internal_node_id":"0.0-99.0","PROLIFIC ID":"67f437b7797e833603cd854e","data_path":"experiments/block_cat/block_cat.h5","stimuli_path":"experiments/block_cat/assets/cuefr_pool.txt","category_path":"experiments/block_cat/assets/cuefr_labels.txt","subjectId":712},{"trial_type":"call-function","trial_index":100,"time_elapsed":1785134,"internal_node_id":"0.0-100.0","PROLIFIC ID":"67f437b7797e833603cd854e","data_path":"experiments/block_cat/block_cat.h5","stimuli_path":"experiments/block_cat/assets/cuefr_pool.txt","category_path":"experiments/block_cat/assets/cuefr_labels.txt","subjectId":712},{"view_history":[{"page_index":0,"viewing_time":12648}],"rt":12648,"trial_index":101,"trial_count":15,"message":"<p >When you're ready to proceed, press Next.</p>","trial_type":"instructions","time_elapsed":1797783,"internal_node_id":"0.0-101.0","PROLIFIC ID":"67f437b7797e833603cd854e","data_path":"experiments/block_cat/block_cat.h5","stimuli_path":"experiments/block_cat/assets/cuefr_pool.txt","category_path":"experiments/block_cat/assets/cuefr_labels.txt","subjectId":712},{"trial_type":"call-function","trial_index":102,"time_elapsed":1797784,"internal_node_id":"0.0-102.0","PROLIFIC ID":"67f437b7797e833603cd854e","data_path":"experiments/block_cat/block_cat.h5","stimuli_path":"experiments/block_cat/assets/cuefr_pool.txt","category_path":"experiments/block_cat/assets/cuefr_labels.txt","subjectId":712},{"load_time":1829337.299999997,"fixation_display_time":1829337.299999997,"trial_type":"fixation","trial_index":103,"time_elapsed":1798785,"internal_node_id":"0.0-103.0","PROLIFIC ID":"67f437b7797e833603cd854e","data_path":"experiments/block_cat/block_cat.h5","stimuli_path":"experiments/block_cat/assets/cuefr_pool.txt","category_path":"experiments/block_cat/assets/cuefr_labels.txt","subjectId":712},{"load_time":1830341.0999999978,"word_display_times":[1830341.0999999978,1833366.1999999993,1836380,1839394,1842409.5,1845423.5999999978,1848446,1851450,1854480.1999999993,1857483.0999999978,1860506.5999999978,1863518.6999999993,1866540.299999997,1869560.6999999993,1872577],"word_list":["FOUNDATION","DRILL","RECLINER","CLARINET","TUBA","VIOLA","SEAGULL","TEAL","BUSINESSPERSON","PICCOLO","CYMBAL","TROMBONE","DROUGHT","SATIN","BALTIMORE"],"category_list":["BUILDING PARTS","CARPENTRY TOOLS","FURNITURE","INSTRUMENTS","INSTRUMENTS","INSTRUMENTS","BIRDS","COLORS","OCCUPATIONS","INSTRUMENTS","INSTRUMENTS","INSTRUMENTS","WEATHER TERMS","FABRICS","CITIES"],"trial_type":"item-presentation","trial_index":104,"time_elapsed":1844038,"internal_node_id":"0.0-104.0","PROLIFIC ID":"67f437b7797e833603cd854e","data_path":"experiments/block_cat/block_cat.h5","stimuli_path":"experiments/block_cat/assets/cuefr_pool.txt","category_path":"experiments/block_cat/assets/cuefr_labels.txt","subjectId":712},{"load_time":1875597.3999999985,"recall_display_time":1875597.5999999978,"category_cue":"","recall_responses":[["b",3248],["a",863],["l",608],["t",472],["i",544],["m",279],["o",296],["r",536],["e",232],["ENTER",743]],"recall_words":["baltimore"],"recall_word_response_times":[3248],"category_target":0,"category_target_string":"","trial_type":"free-recall","trial_index":105,"time_elapsed":1851868,"internal_node_id":"0.0-105.0","PROLIFIC ID":"67f437b7797e833603cd854e","data_path":"experiments/block_cat/block_cat.h5","stimuli_path":"experiments/block_cat/assets/cuefr_pool.txt","category_path":"experiments/block_cat/assets/cuefr_labels.txt","subjectId":712},{"load_time":1883423.5,"recall_display_time":1883423.5,"category_cue":"","recall_responses":[["s",2078],["a",256],["t",472],["i",432],["n",328],["ENTER",535],["d",2224],["r",264],["o",536],["u",328],["g",479],["h",208],["t",256],["ENTER",408],["t",2264],["r",256],["o",463],["m",336],["b",352],["o",360],["n",336],["e",400],["ENTER",423],["c",2792],["y",503],["m",688],["b",304],["a",376],["l",832],["ENTER",344],["p",2512],["i",496],["c",408],["c",176],["i",472],["backspace",871],["o",392],["l",240],["l",176],["o",216],["ENTER",583],["t",4040],["e",311],["a",264],["l",1200],["ENTER",335]],"recall_words":["satin","drought","trombone","cymbal","piccollo","teal"],"recall_word_response_times":[2078,2224,2264,2792,2512,4040],"category_target":"","category_target_string":"","trial_type":"free-recall","trial_index":106,"time_elapsed":1901874,"internal_node_id":"0.0-106.0","PROLIFIC ID":"67f437b7797e833603cd854e","data_path":"experiments/block_cat/block_cat.h5","stimuli_path":"experiments/block_cat/assets/cuefr_pool.txt","category_path":"experiments/block_cat/assets/cuefr_labels.txt","subjectId":712},{"trial_type":"call-function","trial_index":107,"time_elapsed":1901875,"internal_node_id":"0.0-107.0","PROLIFIC ID":"67f437b7797e833603cd854e","data_path":"experiments/block_cat/block_cat.h5","stimuli_path":"experiments/block_cat/assets/cuefr_pool.txt","category_path":"experiments/block_cat/assets/cuefr_labels.txt","subjectId":712},{"view_history":[{"page_index":0,"viewing_time":8122}],"rt":8122,"trial_index":108,"trial_count":15,"message":"<p >You have completed the experiment. Thank you for your participation!</p>","trial_type":"instructions","time_elapsed":1909998,"internal_node_id":"0.0-108.0","PROLIFIC ID":"67f437b7797e833603cd854e","data_path":"experiments/block_cat/block_cat.h5","stimuli_path":"experiments/block_cat/assets/cuefr_pool.txt","category_path":"experiments/block_cat/assets/cuefr_labels.txt","subjectId":712},{"rt":null,"stimulus":"You've completed the experiment! Your total performance bonus is $2.59375. Click \"SUBMIT\" or wait five seconds to complete the experiment and confirm your bonus. Make sure you proceed to the next page to ensure your bonus is recorded.","response":null,"bonus":2.59375,"trial_type":"html-button-response","trial_index":109,"time_elapsed":1915018,"internal_node_id":"0.0-109.0","PROLIFIC ID":"67f437b7797e833603cd854e","data_path":"experiments/block_cat/block_cat.h5","stimuli_path":"experiments/block_cat/assets/cuefr_pool.txt","category_path":"experiments/block_cat/assets/cuefr_labels.txt","subjectId":712}]
