[{"success":true,"rt":42060,"trial_type":"fullscreen","trial_index":0,"time_elapsed":43062,"internal_node_id":"0.0-0.0","PROLIFIC ID":"66465c850d9a3e177f2649fa","data_path":"experiments/cat_target_short/cuefr.h5","stimuli_path":"experiments/cat_target_short/assets/cuefr_pool.txt","category_path":"experiments/cat_target_short/assets/cuefr_labels.txt","subjectId":0},{"view_history":[{"page_index":0,"viewing_time":6745},{"page_index":1,"viewing_time":11562},{"page_index":2,"viewing_time":13068},{"page_index":3,"viewing_time":5065},{"page_index":4,"viewing_time":15084},{"page_index":5,"viewing_time":8002},{"page_index":6,"viewing_time":9995},{"page_index":7,"viewing_time":3785},{"page_index":8,"viewing_time":2204},{"page_index":9,"viewing_time":1090},{"page_index":10,"viewing_time":994},{"page_index":11,"viewing_time":1919},{"page_index":12,"viewing_time":1075},{"page_index":13,"viewing_time":1096},{"page_index":14,"viewing_time":5755},{"page_index":15,"viewing_time":2060},{"page_index":16,"viewing_time":4159},{"page_index":17,"viewing_time":2513},{"page_index":18,"viewing_time":6498}],"rt":102671,"trial_type":"instructions","trial_index":1,"time_elapsed":145734,"internal_node_id":"0.0-1.0","PROLIFIC ID":"66465c850d9a3e177f2649fa","data_path":"experiments/cat_target_short/cuefr.h5","stimuli_path":"experiments/cat_target_short/assets/cuefr_pool.txt","category_path":"experiments/cat_target_short/assets/cuefr_labels.txt","subjectId":0},{"view_history":[{"page_index":0,"viewing_time":2463}],"rt":2463,"trial_type":"instructions","trial_index":2,"time_elapsed":148197,"internal_node_id":"0.0-2.0","PROLIFIC ID":"66465c850d9a3e177f2649fa","data_path":"experiments/cat_target_short/cuefr.h5","stimuli_path":"experiments/cat_target_short/assets/cuefr_pool.txt","category_path":"experiments/cat_target_short/assets/cuefr_labels.txt","subjectId":0},{"trial_type":"call-function","trial_index":3,"time_elapsed":148197,"internal_node_id":"0.0-3.0","PROLIFIC ID":"66465c850d9a3e177f2649fa","data_path":"experiments/cat_target_short/cuefr.h5","stimuli_path":"experiments/cat_target_short/assets/cuefr_pool.txt","category_path":"experiments/cat_target_short/assets/cuefr_labels.txt","subjectId":0},{"trial_type":"call-function","trial_index":4,"time_elapsed":148197,"internal_node_id":"0.0-4.0","PROLIFIC ID":"66465c850d9a3e177f2649fa","data_path":"experiments/cat_target_short/cuefr.h5","stimuli_path":"experiments/cat_target_short/assets/cuefr_pool.txt","category_path":"experiments/cat_target_short/assets/cuefr_labels.txt","subjectId":0},{"load_time":167916.69999998808,"fixation_display_time":167916.69999998808,"trial_type":"fixation","trial_index":5,"time_elapsed":149199,"internal_node_id":"0.0-5.0","PROLIFIC ID":"66465c850d9a3e177f2649fa","data_path":"experiments/cat_target_short/cuefr.h5","stimuli_path":"experiments/cat_target_short/assets/cuefr_pool.txt","category_path":"experiments/cat_target_short/assets/cuefr_labels.txt","subjectId":0},{"load_time":168919.19999998808,"word_display_times":[168919.29999998212,171920.5,174923.29999998212,177924.29999998212,180924.90000000596,183927.29999998212],"word_list":["KOOL AID","HOTEL","DUCK","SCOTLAND","CLARINET","BLENDER"],"category_list":["BEVERAGES","DWELLINGS","BIRDS","COUNTRIES","INSTRUMENTS","KITCHEN TOOLS"],"trial_type":"item-presentation","trial_index":6,"time_elapsed":167210,"internal_node_id":"0.0-6.0","PROLIFIC ID":"66465c850d9a3e177f2649fa","data_path":"experiments/cat_target_short/cuefr.h5","stimuli_path":"experiments/cat_target_short/assets/cuefr_pool.txt","category_path":"experiments/cat_target_short/assets/cuefr_labels.txt","subjectId":0},{"load_time":186934.29999998212,"recall_display_time":186934.5,"category_cue":"COUNTRIES","recall_responses":[["s",2934],["c",167],["o",184],["t",216],["l",192],["a",160],["n",120],["d",120],["ENTER",1832]],"recall_words":["scotland"],"recall_word_response_times":[2934],"category_target":162,"category_target_string":"SCOTLAND","trial_type":"free-recall","trial_index":7,"time_elapsed":173141,"internal_node_id":"0.0-7.0","PROLIFIC ID":"66465c850d9a3e177f2649fa","data_path":"experiments/cat_target_short/cuefr.h5","stimuli_path":"experiments/cat_target_short/assets/cuefr_pool.txt","category_path":"experiments/cat_target_short/assets/cuefr_labels.txt","subjectId":0},{"load_time":192862,"recall_display_time":192862,"category_cue":"","recall_responses":[["c",2703],["l",119],["a",120],["i",184],["backspace",592],["i",312],["r",128],["n",200],["e",152],["t",112],["backspace",536],["backspace",160],["backspace",160],["backspace",168],["backspace",168],["r",248],["i",136],["n",200],["e",88],["t",88],["backspace",3417],["backspace",1215],["backspace",192],["backspace",168],["backspace",184],["backspace",168],["backspace",184],["backspace",176],["c",104],["l",161],["a",119],["i",504],["backspace",360],["r",120],["i",296],["n",552],["e",80],["t",120],["ENTER",208],["d",4808],["u",104],["c",160],["k",80],["ENTER",192]],"recall_words":["clarinet","duck"],"recall_word_response_times":[2703,4808],"category_target":"","category_target_string":"","trial_type":"free-recall","trial_index":8,"time_elapsed":203144,"internal_node_id":"0.0-8.0","PROLIFIC ID":"66465c850d9a3e177f2649fa","data_path":"experiments/cat_target_short/cuefr.h5","stimuli_path":"experiments/cat_target_short/assets/cuefr_pool.txt","category_path":"experiments/cat_target_short/assets/cuefr_labels.txt","subjectId":0},{"trial_type":"call-function","trial_index":9,"time_elapsed":203144,"internal_node_id":"0.0-9.0","PROLIFIC ID":"66465c850d9a3e177f2649fa","data_path":"experiments/cat_target_short/cuefr.h5","stimuli_path":"experiments/cat_target_short/assets/cuefr_pool.txt","category_path":"experiments/cat_target_short/assets/cuefr_labels.txt","subjectId":0},{"view_history":[{"page_index":0,"viewing_time":7078}],"rt":7078,"trial_index":10,"trial_count":20,"message":"<p >You've completed the first trial! Please click the right arrow on your keyboard to proceed to the next trial.</p>","trial_type":"instructions","time_elapsed":210222,"internal_node_id":"0.0-10.0","PROLIFIC ID":"66465c850d9a3e177f2649fa","data_path":"experiments/cat_target_short/cuefr.h5","stimuli_path":"experiments/cat_target_short/assets/cuefr_pool.txt","category_path":"experiments/cat_target_short/assets/cuefr_labels.txt","subjectId":0},{"trial_type":"call-function","trial_index":11,"time_elapsed":210223,"internal_node_id":"0.0-11.0","PROLIFIC ID":"66465c850d9a3e177f2649fa","data_path":"experiments/cat_target_short/cuefr.h5","stimuli_path":"experiments/cat_target_short/assets/cuefr_pool.txt","category_path":"experiments/cat_target_short/assets/cuefr_labels.txt","subjectId":0},{"load_time":229942.29999998212,"fixation_display_time":229942.29999998212,"trial_type":"fixation","trial_index":12,"time_elapsed":211223,"internal_node_id":"0.0-12.0","PROLIFIC ID":"66465c850d9a3e177f2649fa","data_path":"experiments/cat_target_short/cuefr.h5","stimuli_path":"experiments/cat_target_short/assets/cuefr_pool.txt","category_path":"experiments/cat_target_short/assets/cuefr_labels.txt","subjectId":0},{"load_time":230943.19999998808,"word_display_times":[230943.19999998808,233944.59999999404,236947.09999999404,239948.40000000596,242950.79999998212,245952.29999998212],"word_list":["TEXTBOOK","ELEVATOR","CLIFF","COLUMBINE","SOFA","STEAMSHIP"],"category_list":["READING MATERIALS","BUILDING PARTS","GEOGRAPHY TERMS","FLOWERS","FURNITURE","SHIPS"],"trial_type":"item-presentation","trial_index":13,"time_elapsed":229235,"internal_node_id":"0.0-13.0","PROLIFIC ID":"66465c850d9a3e177f2649fa","data_path":"experiments/cat_target_short/cuefr.h5","stimuli_path":"experiments/cat_target_short/assets/cuefr_pool.txt","category_path":"experiments/cat_target_short/assets/cuefr_labels.txt","subjectId":0},{"load_time":248958.69999998808,"recall_display_time":248958.69999998808,"category_cue":"BUILDING PARTS","recall_responses":[],"recall_words":[],"recall_word_response_times":[],"category_target":47,"category_target_string":"ELEVATOR","trial_type":"free-recall","trial_index":14,"time_elapsed":239240,"internal_node_id":"0.0-14.0","PROLIFIC ID":"66465c850d9a3e177f2649fa","data_path":"experiments/cat_target_short/cuefr.h5","stimuli_path":"experiments/cat_target_short/assets/cuefr_pool.txt","category_path":"experiments/cat_target_short/assets/cuefr_labels.txt","subjectId":0},{"load_time":258966,"recall_display_time":258966.09999999404,"category_cue":"","recall_responses":[["s",9649],["t",135],["e",192],["a",72],["m",64],["s",152],["h",96],["i",88],["p",192],["ENTER",224],["t",6064],["e",96],["x",224],["t",240],["b",208],["o",48],["o",160],["k",168],["ENTER",216]],"recall_words":["steamship","textbook"],"recall_word_response_times":[9649,6064],"category_target":"","category_target_string":"","trial_type":"free-recall","trial_index":15,"time_elapsed":269248,"internal_node_id":"0.0-15.0","PROLIFIC ID":"66465c850d9a3e177f2649fa","data_path":"experiments/cat_target_short/cuefr.h5","stimuli_path":"experiments/cat_target_short/assets/cuefr_pool.txt","category_path":"experiments/cat_target_short/assets/cuefr_labels.txt","subjectId":0},{"trial_type":"call-function","trial_index":16,"time_elapsed":269248,"internal_node_id":"0.0-16.0","PROLIFIC ID":"66465c850d9a3e177f2649fa","data_path":"experiments/cat_target_short/cuefr.h5","stimuli_path":"experiments/cat_target_short/assets/cuefr_pool.txt","category_path":"experiments/cat_target_short/assets/cuefr_labels.txt","subjectId":0},{"view_history":[{"page_index":0,"viewing_time":3356}],"rt":3356,"trial_index":17,"trial_count":20,"message":"<p >When you're ready to proceed, press Next.</p>","trial_type":"instructions","time_elapsed":272604,"internal_node_id":"0.0-17.0","PROLIFIC ID":"66465c850d9a3e177f2649fa","data_path":"experiments/cat_target_short/cuefr.h5","stimuli_path":"experiments/cat_target_short/assets/cuefr_pool.txt","category_path":"experiments/cat_target_short/assets/cuefr_labels.txt","subjectId":0},{"trial_type":"call-function","trial_index":18,"time_elapsed":272605,"internal_node_id":"0.0-18.0","PROLIFIC ID":"66465c850d9a3e177f2649fa","data_path":"experiments/cat_target_short/cuefr.h5","stimuli_path":"experiments/cat_target_short/assets/cuefr_pool.txt","category_path":"experiments/cat_target_short/assets/cuefr_labels.txt","subjectId":0},{"load_time":292323.90000000596,"fixation_display_time":292323.90000000596,"trial_type":"fixation","trial_index":19,"time_elapsed":273606,"internal_node_id":"0.0-19.0","PROLIFIC ID":"66465c850d9a3e177f2649fa","data_path":"experiments/cat_target_short/cuefr.h5","stimuli_path":"experiments/cat_target_short/assets/cuefr_pool.txt","category_path":"experiments/cat_target_short/assets/cuefr_labels.txt","subjectId":0},{"load_time":293325.40000000596,"word_display_times":[293325.40000000596,296327.90000000596,299330.5,302333.09999999404,305335.90000000596,308337.1999999881],"word_list":["SOFTBALL","CHICKEN","STOVE","SPANDEX","BANJO","PROFESSOR"],"category_list":["SPORTS","BIRDS","KITCHEN TOOLS","FABRICS","INSTRUMENTS","OCCUPATIONS"],"trial_type":"item-presentation","trial_index":20,"time_elapsed":291621,"internal_node_id":"0.0-20.0","PROLIFIC ID":"66465c850d9a3e177f2649fa","data_path":"experiments/cat_target_short/cuefr.h5","stimuli_path":"experiments/cat_target_short/assets/cuefr_pool.txt","category_path":"experiments/cat_target_short/assets/cuefr_labels.txt","subjectId":0},{"load_time":311346.1999999881,"recall_display_time":311346.1999999881,"category_cue":"FABRICS","recall_responses":[["s",3422],["p",96],["a",272],["n",104],["d",168],["e",168],["x",168],["ENTER",832]],"recall_words":["spandex"],"recall_word_response_times":[3422],"category_target":213,"category_target_string":"SPANDEX","trial_type":"free-recall","trial_index":21,"time_elapsed":296857,"internal_node_id":"0.0-21.0","PROLIFIC ID":"66465c850d9a3e177f2649fa","data_path":"experiments/cat_target_short/cuefr.h5","stimuli_path":"experiments/cat_target_short/assets/cuefr_pool.txt","category_path":"experiments/cat_target_short/assets/cuefr_labels.txt","subjectId":0},{"load_time":316577,"recall_display_time":316577,"category_cue":"","recall_responses":[["s",1791],["o",128],["f",119],["t",192],["b",120],["a",80],["l",112],["l",151],["ENTER",264],["c",232],["h",72],["i",64],["c",104],["k",72],["e",119],["n",96],["ENTER",280],["s",2304],["t",152],["o",112],["v",128],["e",144],["ENTER",352]],"recall_words":["softball","chicken","stove"],"recall_word_response_times":[1791,232,2304],"category_target":"","category_target_string":"","trial_type":"free-recall","trial_index":22,"time_elapsed":326859,"internal_node_id":"0.0-22.0","PROLIFIC ID":"66465c850d9a3e177f2649fa","data_path":"experiments/cat_target_short/cuefr.h5","stimuli_path":"experiments/cat_target_short/assets/cuefr_pool.txt","category_path":"experiments/cat_target_short/assets/cuefr_labels.txt","subjectId":0},{"trial_type":"call-function","trial_index":23,"time_elapsed":326859,"internal_node_id":"0.0-23.0","PROLIFIC ID":"66465c850d9a3e177f2649fa","data_path":"experiments/cat_target_short/cuefr.h5","stimuli_path":"experiments/cat_target_short/assets/cuefr_pool.txt","category_path":"experiments/cat_target_short/assets/cuefr_labels.txt","subjectId":0},{"view_history":[{"page_index":0,"viewing_time":4399}],"rt":4399,"trial_index":24,"trial_count":20,"message":"<p >When you're ready to proceed, press Next.</p>","trial_type":"instructions","time_elapsed":331258,"internal_node_id":"0.0-24.0","PROLIFIC ID":"66465c850d9a3e177f2649fa","data_path":"experiments/cat_target_short/cuefr.h5","stimuli_path":"experiments/cat_target_short/assets/cuefr_pool.txt","category_path":"experiments/cat_target_short/assets/cuefr_labels.txt","subjectId":0},{"trial_type":"call-function","trial_index":25,"time_elapsed":331258,"internal_node_id":"0.0-25.0","PROLIFIC ID":"66465c850d9a3e177f2649fa","data_path":"experiments/cat_target_short/cuefr.h5","stimuli_path":"experiments/cat_target_short/assets/cuefr_pool.txt","category_path":"experiments/cat_target_short/assets/cuefr_labels.txt","subjectId":0},{"load_time":350977.5,"fixation_display_time":350977.5,"trial_type":"fixation","trial_index":26,"time_elapsed":332259,"internal_node_id":"0.0-26.0","PROLIFIC ID":"66465c850d9a3e177f2649fa","data_path":"experiments/cat_target_short/cuefr.h5","stimuli_path":"experiments/cat_target_short/assets/cuefr_pool.txt","category_path":"experiments/cat_target_short/assets/cuefr_labels.txt","subjectId":0},{"load_time":351979,"word_display_times":[351979,354981.6999999881,357984.7999999821,360987.6999999881,363990,366991.90000000596],"word_list":["ROOM","VOLCANO","ENGLAND","ADOBE","SCREWDRIVER","WISCONSIN"],"category_list":["BUILDING PARTS","GEOGRAPHY TERMS","COUNTRIES","DWELLINGS","CARPENTRY TOOLS","STATES"],"trial_type":"item-presentation","trial_index":27,"time_elapsed":350276,"internal_node_id":"0.0-27.0","PROLIFIC ID":"66465c850d9a3e177f2649fa","data_path":"experiments/cat_target_short/cuefr.h5","stimuli_path":"experiments/cat_target_short/assets/cuefr_pool.txt","category_path":"experiments/cat_target_short/assets/cuefr_labels.txt","subjectId":0},{"load_time":369999.90000000596,"recall_display_time":370000,"category_cue":"","recall_responses":[["w",1618],["i",327],["s",144],["c",192],["o",136],["n",409],["s",208],["i",80],["n",136],["ENTER",296]],"recall_words":["wisconsin"],"recall_word_response_times":[1618],"category_target":0,"category_target_string":"","trial_type":"free-recall","trial_index":28,"time_elapsed":353826,"internal_node_id":"0.0-28.0","PROLIFIC ID":"66465c850d9a3e177f2649fa","data_path":"experiments/cat_target_short/cuefr.h5","stimuli_path":"experiments/cat_target_short/assets/cuefr_pool.txt","category_path":"experiments/cat_target_short/assets/cuefr_labels.txt","subjectId":0},{"load_time":373546.09999999404,"recall_display_time":373546.1999999881,"category_cue":"","recall_responses":[["t",1015],["e",120],["c",192],["x",0],["backspace",432],["backspace",760],["x",79],["t",224],["b",96],["o",168],["o",144],["k",152],["ENTER",192],["s",472],["t",160],["e",152],["a",64],["m",48],["s",168],["h",80],["i",104],["p",216],["ENTER",192],["r",3697],["o",95],["o",144],["m",144],["ENTER",328],["a",8985],["d",432],["o",159],["b",168],["e",80],["ENTER",89]],"recall_words":["textbook","steamship","room","adobe"],"recall_word_response_times":[1015,472,3697,8985],"category_target":"","category_target_string":"","trial_type":"free-recall","trial_index":29,"time_elapsed":383828,"internal_node_id":"0.0-29.0","PROLIFIC ID":"66465c850d9a3e177f2649fa","data_path":"experiments/cat_target_short/cuefr.h5","stimuli_path":"experiments/cat_target_short/assets/cuefr_pool.txt","category_path":"experiments/cat_target_short/assets/cuefr_labels.txt","subjectId":0},{"trial_type":"call-function","trial_index":30,"time_elapsed":383829,"internal_node_id":"0.0-30.0","PROLIFIC ID":"66465c850d9a3e177f2649fa","data_path":"experiments/cat_target_short/cuefr.h5","stimuli_path":"experiments/cat_target_short/assets/cuefr_pool.txt","category_path":"experiments/cat_target_short/assets/cuefr_labels.txt","subjectId":0},{"view_history":[{"page_index":0,"viewing_time":2520}],"rt":2521,"trial_index":31,"trial_count":20,"message":"<p >When you're ready to proceed, press Next.</p>","trial_type":"instructions","time_elapsed":386349,"internal_node_id":"0.0-31.0","PROLIFIC ID":"66465c850d9a3e177f2649fa","data_path":"experiments/cat_target_short/cuefr.h5","stimuli_path":"experiments/cat_target_short/assets/cuefr_pool.txt","category_path":"experiments/cat_target_short/assets/cuefr_labels.txt","subjectId":0},{"trial_type":"call-function","trial_index":32,"time_elapsed":386350,"internal_node_id":"0.0-32.0","PROLIFIC ID":"66465c850d9a3e177f2649fa","data_path":"experiments/cat_target_short/cuefr.h5","stimuli_path":"experiments/cat_target_short/assets/cuefr_pool.txt","category_path":"experiments/cat_target_short/assets/cuefr_labels.txt","subjectId":0},{"load_time":406069.09999999404,"fixation_display_time":406069.09999999404,"trial_type":"fixation","trial_index":33,"time_elapsed":387351,"internal_node_id":"0.0-33.0","PROLIFIC ID":"66465c850d9a3e177f2649fa","data_path":"experiments/cat_target_short/cuefr.h5","stimuli_path":"experiments/cat_target_short/assets/cuefr_pool.txt","category_path":"experiments/cat_target_short/assets/cuefr_labels.txt","subjectId":0},{"load_time":407070.7999999821,"word_display_times":[407070.7999999821,410072.40000000596,413074.7999999821,416077.90000000596,419080.90000000596,422083.59999999404],"word_list":["CHIEF","NYLON","PONTOON","MOSQUITO","DEER","PAPRIKA"],"category_list":["MILITARY TITLES","FABRICS","SHIPS","INSECTS","FOUR-FOOTED ANIMALS","SEASONINGS"],"trial_type":"item-presentation","trial_index":34,"time_elapsed":405367,"internal_node_id":"0.0-34.0","PROLIFIC ID":"66465c850d9a3e177f2649fa","data_path":"experiments/cat_target_short/cuefr.h5","stimuli_path":"experiments/cat_target_short/assets/cuefr_pool.txt","category_path":"experiments/cat_target_short/assets/cuefr_labels.txt","subjectId":0},{"load_time":425091,"recall_display_time":425091.09999999404,"category_cue":"INSECTS","recall_responses":[["m",3704],["o",95],["s",120],["q",977],["u",135],["i",176],["t",160],["o",192],["backspace",1936],["backspace",176],["e",96],["t",96],["o",120],["backspace",584],["backspace",160],["backspace",144],["t",72],["o",120],["ENTER",208]],"recall_words":["mosquito"],"recall_word_response_times":[3704],"category_target":322,"category_target_string":"MOSQUITO","trial_type":"free-recall","trial_index":35,"time_elapsed":414644,"internal_node_id":"0.0-35.0","PROLIFIC ID":"66465c850d9a3e177f2649fa","data_path":"experiments/cat_target_short/cuefr.h5","stimuli_path":"experiments/cat_target_short/assets/cuefr_pool.txt","category_path":"experiments/cat_target_short/assets/cuefr_labels.txt","subjectId":0},{"load_time":434363.6999999881,"recall_display_time":434363.6999999881,"category_cue":"","recall_responses":[["c",1831],["h",32],["i",760],["e",55],["f",440],["ENTER",120],["n",288],["y",176],["l",112],["o",160],["n",176],["ENTER",336],["p",400],["o",312],["n",160],["t",152],["o",72],["o",135],["n",144],["ENTER",240],["s",2360],["t",119],["e",184],["a",56],["m",48],["s",184],["h",80],["i",88],["o",184],["p",8],["backspace",361],["backspace",183],["p",176],["ENTER",280],["t",3408],["e",88],["x",248],["t",264],["b",112],["o",152],["o",160],["k",168],["ENTER",216]],"recall_words":["chief","nylon","pontoon","steamship","textbook"],"recall_word_response_times":[1831,288,400,2360,3408],"category_target":"","category_target_string":"","trial_type":"free-recall","trial_index":36,"time_elapsed":444646,"internal_node_id":"0.0-36.0","PROLIFIC ID":"66465c850d9a3e177f2649fa","data_path":"experiments/cat_target_short/cuefr.h5","stimuli_path":"experiments/cat_target_short/assets/cuefr_pool.txt","category_path":"experiments/cat_target_short/assets/cuefr_labels.txt","subjectId":0},{"trial_type":"call-function","trial_index":37,"time_elapsed":444646,"internal_node_id":"0.0-37.0","PROLIFIC ID":"66465c850d9a3e177f2649fa","data_path":"experiments/cat_target_short/cuefr.h5","stimuli_path":"experiments/cat_target_short/assets/cuefr_pool.txt","category_path":"experiments/cat_target_short/assets/cuefr_labels.txt","subjectId":0},{"view_history":[{"page_index":0,"viewing_time":3037}],"rt":3037,"trial_index":38,"trial_count":20,"message":"<p >When you're ready to proceed, press Next.</p>","trial_type":"instructions","time_elapsed":447683,"internal_node_id":"0.0-38.0","PROLIFIC ID":"66465c850d9a3e177f2649fa","data_path":"experiments/cat_target_short/cuefr.h5","stimuli_path":"experiments/cat_target_short/assets/cuefr_pool.txt","category_path":"experiments/cat_target_short/assets/cuefr_labels.txt","subjectId":0},{"trial_type":"call-function","trial_index":39,"time_elapsed":447683,"internal_node_id":"0.0-39.0","PROLIFIC ID":"66465c850d9a3e177f2649fa","data_path":"experiments/cat_target_short/cuefr.h5","stimuli_path":"experiments/cat_target_short/assets/cuefr_pool.txt","category_path":"experiments/cat_target_short/assets/cuefr_labels.txt","subjectId":0},{"load_time":467402.90000000596,"fixation_display_time":467402.90000000596,"trial_type":"fixation","trial_index":40,"time_elapsed":448684,"internal_node_id":"0.0-40.0","PROLIFIC ID":"66465c850d9a3e177f2649fa","data_path":"experiments/cat_target_short/cuefr.h5","stimuli_path":"experiments/cat_target_short/assets/cuefr_pool.txt","category_path":"experiments/cat_target_short/assets/cuefr_labels.txt","subjectId":0},{"load_time":468404.09999999404,"word_display_times":[468404.09999999404,471405.90000000596,474408.59999999404,477410,480412.7999999821,483414.90000000596],"word_list":["TORSO","COD","BOWLING","AUSTRALIA","ATTIC","CABIN"],"category_list":["BODY PARTS","FISH","SPORTS","COUNTRIES","BUILDING PARTS","DWELLINGS"],"trial_type":"item-presentation","trial_index":41,"time_elapsed":466699,"internal_node_id":"0.0-41.0","PROLIFIC ID":"66465c850d9a3e177f2649fa","data_path":"experiments/cat_target_short/cuefr.h5","stimuli_path":"experiments/cat_target_short/assets/cuefr_pool.txt","category_path":"experiments/cat_target_short/assets/cuefr_labels.txt","subjectId":0},{"load_time":486424.40000000596,"recall_display_time":486424.40000000596,"category_cue":"","recall_responses":[["t",1477],["o",151],["r",120],["s",184],["o",120],["ENTER",496]],"recall_words":["torso"],"recall_word_response_times":[1477],"category_target":0,"category_target_string":"","trial_type":"free-recall","trial_index":42,"time_elapsed":469254,"internal_node_id":"0.0-42.0","PROLIFIC ID":"66465c850d9a3e177f2649fa","data_path":"experiments/cat_target_short/cuefr.h5","stimuli_path":"experiments/cat_target_short/assets/cuefr_pool.txt","category_path":"experiments/cat_target_short/assets/cuefr_labels.txt","subjectId":0},{"load_time":488974.09999999404,"recall_display_time":488974.09999999404,"category_cue":"","recall_responses":[["c",238],["o",120],["d",168],["ENTER",336],["b",264],["o",88],["w",127],["l",400],["i",208],["n",128],["g",112],["ENTER",104],["a",160],["t",96],["t",176],["i",88],["c",176],["ENTER",520],["a",2720],["u",183],["s",144],["t",216],["r",168],["a",72],["i",72],["l",144],["i",168],["a",88],["ENTER",184]],"recall_words":["cod","bowling","attic","austrailia"],"recall_word_response_times":[238,264,160,2720],"category_target":"","category_target_string":"","trial_type":"free-recall","trial_index":43,"time_elapsed":499256,"internal_node_id":"0.0-43.0","PROLIFIC ID":"66465c850d9a3e177f2649fa","data_path":"experiments/cat_target_short/cuefr.h5","stimuli_path":"experiments/cat_target_short/assets/cuefr_pool.txt","category_path":"experiments/cat_target_short/assets/cuefr_labels.txt","subjectId":0},{"trial_type":"call-function","trial_index":44,"time_elapsed":499256,"internal_node_id":"0.0-44.0","PROLIFIC ID":"66465c850d9a3e177f2649fa","data_path":"experiments/cat_target_short/cuefr.h5","stimuli_path":"experiments/cat_target_short/assets/cuefr_pool.txt","category_path":"experiments/cat_target_short/assets/cuefr_labels.txt","subjectId":0},{"view_history":[{"page_index":0,"viewing_time":3528}],"rt":3528,"trial_index":45,"trial_count":20,"message":"<p >When you're ready to proceed, press Next.</p>","trial_type":"instructions","time_elapsed":502784,"internal_node_id":"0.0-45.0","PROLIFIC ID":"66465c850d9a3e177f2649fa","data_path":"experiments/cat_target_short/cuefr.h5","stimuli_path":"experiments/cat_target_short/assets/cuefr_pool.txt","category_path":"experiments/cat_target_short/assets/cuefr_labels.txt","subjectId":0},{"trial_type":"call-function","trial_index":46,"time_elapsed":502784,"internal_node_id":"0.0-46.0","PROLIFIC ID":"66465c850d9a3e177f2649fa","data_path":"experiments/cat_target_short/cuefr.h5","stimuli_path":"experiments/cat_target_short/assets/cuefr_pool.txt","category_path":"experiments/cat_target_short/assets/cuefr_labels.txt","subjectId":0},{"load_time":522503.59999999404,"fixation_display_time":522503.59999999404,"trial_type":"fixation","trial_index":47,"time_elapsed":503785,"internal_node_id":"0.0-47.0","PROLIFIC ID":"66465c850d9a3e177f2649fa","data_path":"experiments/cat_target_short/cuefr.h5","stimuli_path":"experiments/cat_target_short/assets/cuefr_pool.txt","category_path":"experiments/cat_target_short/assets/cuefr_labels.txt","subjectId":0},{"load_time":523504.90000000596,"word_display_times":[523504.90000000596,526507.900000006,529509.599999994,532511.6999999881,535513.6999999881,538515.5],"word_list":["VELVET","ROSE","COCKROACH","LEMON","SERGEANT","COFFEE"],"category_list":["FABRICS","FLOWERS","INSECTS","FRUIT","MILITARY TITLES","BEVERAGES"],"trial_type":"item-presentation","trial_index":48,"time_elapsed":521799,"internal_node_id":"0.0-48.0","PROLIFIC ID":"66465c850d9a3e177f2649fa","data_path":"experiments/cat_target_short/cuefr.h5","stimuli_path":"experiments/cat_target_short/assets/cuefr_pool.txt","category_path":"experiments/cat_target_short/assets/cuefr_labels.txt","subjectId":0},{"load_time":541524.099999994,"recall_display_time":541524.099999994,"category_cue":"INSECTS","recall_responses":[["c",2066],["o",135],["c",152],["k",64],["r",176],["o",112],["a",64],["c",144],["h",96],["ENTER",648]],"recall_words":["cockroach"],"recall_word_response_times":[2066],"category_target":314,"category_target_string":"COCKROACH","trial_type":"free-recall","trial_index":49,"time_elapsed":525463,"internal_node_id":"0.0-49.0","PROLIFIC ID":"66465c850d9a3e177f2649fa","data_path":"experiments/cat_target_short/cuefr.h5","stimuli_path":"experiments/cat_target_short/assets/cuefr_pool.txt","category_path":"experiments/cat_target_short/assets/cuefr_labels.txt","subjectId":0},{"load_time":545183.400000006,"recall_display_time":545183.400000006,"category_cue":"","recall_responses":[["v",215],["a",144],["backspace",304],["e",136],["l",80],["v",168],["e",192],["t",136],["ENTER",792],["r",752],["o",96],["s",144],["e",80],["ENTER",304],["s",1456],["e",264],["backspace",880],["e",336],["r",112],["g",216],["e",216],["a",56],["n",72],["t",136],["ENTER",736],["c",1264],["o",96],["f",160],["f",168],["e",144],["e",192],["ENTER",96]],"recall_words":["velvet","rose","sergeant","coffee"],"recall_word_response_times":[215,752,1456,1264],"category_target":"","category_target_string":"","trial_type":"free-recall","trial_index":50,"time_elapsed":555465,"internal_node_id":"0.0-50.0","PROLIFIC ID":"66465c850d9a3e177f2649fa","data_path":"experiments/cat_target_short/cuefr.h5","stimuli_path":"experiments/cat_target_short/assets/cuefr_pool.txt","category_path":"experiments/cat_target_short/assets/cuefr_labels.txt","subjectId":0},{"trial_type":"call-function","trial_index":51,"time_elapsed":555466,"internal_node_id":"0.0-51.0","PROLIFIC ID":"66465c850d9a3e177f2649fa","data_path":"experiments/cat_target_short/cuefr.h5","stimuli_path":"experiments/cat_target_short/assets/cuefr_pool.txt","category_path":"experiments/cat_target_short/assets/cuefr_labels.txt","subjectId":0},{"view_history":[{"page_index":0,"viewing_time":2723}],"rt":2724,"trial_index":52,"trial_count":20,"message":"<p >When you're ready to proceed, press Next.</p>","trial_type":"instructions","time_elapsed":558190,"internal_node_id":"0.0-52.0","PROLIFIC ID":"66465c850d9a3e177f2649fa","data_path":"experiments/cat_target_short/cuefr.h5","stimuli_path":"experiments/cat_target_short/assets/cuefr_pool.txt","category_path":"experiments/cat_target_short/assets/cuefr_labels.txt","subjectId":0},{"trial_type":"call-function","trial_index":53,"time_elapsed":558190,"internal_node_id":"0.0-53.0","PROLIFIC ID":"66465c850d9a3e177f2649fa","data_path":"experiments/cat_target_short/cuefr.h5","stimuli_path":"experiments/cat_target_short/assets/cuefr_pool.txt","category_path":"experiments/cat_target_short/assets/cuefr_labels.txt","subjectId":0},{"load_time":577909.400000006,"fixation_display_time":577909.400000006,"trial_type":"fixation","trial_index":54,"time_elapsed":559191,"internal_node_id":"0.0-54.0","PROLIFIC ID":"66465c850d9a3e177f2649fa","data_path":"experiments/cat_target_short/cuefr.h5","stimuli_path":"experiments/cat_target_short/assets/cuefr_pool.txt","category_path":"experiments/cat_target_short/assets/cuefr_labels.txt","subjectId":0},{"load_time":578910.900000006,"word_display_times":[578910.900000006,581913.599999994,584916.2999999821,587917.900000006,590920.7999999821,593922.900000006],"word_list":["VINEGAR","GOLF","COPPER","SNAPPER","LOUISIANA","TEAL"],"category_list":["SEASONINGS","SPORTS","ELEMENTS","FISH","STATES","COLORS"],"trial_type":"item-presentation","trial_index":55,"time_elapsed":577206,"internal_node_id":"0.0-55.0","PROLIFIC ID":"66465c850d9a3e177f2649fa","data_path":"experiments/cat_target_short/cuefr.h5","stimuli_path":"experiments/cat_target_short/assets/cuefr_pool.txt","category_path":"experiments/cat_target_short/assets/cuefr_labels.txt","subjectId":0},{"load_time":596931.7999999821,"recall_display_time":596931.7999999821,"category_cue":"SPORTS","recall_responses":[["g",2932],["o",143],["l",168],["f",120],["ENTER",424]],"recall_words":["golf"],"recall_word_response_times":[2932],"category_target":427,"category_target_string":"GOLF","trial_type":"free-recall","trial_index":56,"time_elapsed":581001,"internal_node_id":"0.0-56.0","PROLIFIC ID":"66465c850d9a3e177f2649fa","data_path":"experiments/cat_target_short/cuefr.h5","stimuli_path":"experiments/cat_target_short/assets/cuefr_pool.txt","category_path":"experiments/cat_target_short/assets/cuefr_labels.txt","subjectId":0},{"load_time":600721,"recall_display_time":600721.099999994,"category_cue":"","recall_responses":[["c",735],["o",88],["p",200],["p",144],["e",72],["r",72],["ENTER",376],["s",352],["n",128],["a",88],["p",120],["p",144],["e",120],["r",104],["ENTER",424],["v",616],["i",96],["n",144],["e",64],["g",144],["a",104],["r",160],["ENTER",977],["s",5480],["e",176],["a",168],["t",184],["t",168],["l",73],["e",183],["ENTER",1200]],"recall_words":["copper","snapper","vinegar","seattle"],"recall_word_response_times":[735,352,616,5480],"category_target":"","category_target_string":"","trial_type":"free-recall","trial_index":57,"time_elapsed":611002,"internal_node_id":"0.0-57.0","PROLIFIC ID":"66465c850d9a3e177f2649fa","data_path":"experiments/cat_target_short/cuefr.h5","stimuli_path":"experiments/cat_target_short/assets/cuefr_pool.txt","category_path":"experiments/cat_target_short/assets/cuefr_labels.txt","subjectId":0},{"trial_type":"call-function","trial_index":58,"time_elapsed":611002,"internal_node_id":"0.0-58.0","PROLIFIC ID":"66465c850d9a3e177f2649fa","data_path":"experiments/cat_target_short/cuefr.h5","stimuli_path":"experiments/cat_target_short/assets/cuefr_pool.txt","category_path":"experiments/cat_target_short/assets/cuefr_labels.txt","subjectId":0},{"view_history":[{"page_index":0,"viewing_time":3632}],"rt":3632,"trial_index":59,"trial_count":20,"message":"<p >When you're ready to proceed, press Next.</p>","trial_type":"instructions","time_elapsed":614635,"internal_node_id":"0.0-59.0","PROLIFIC ID":"66465c850d9a3e177f2649fa","data_path":"experiments/cat_target_short/cuefr.h5","stimuli_path":"experiments/cat_target_short/assets/cuefr_pool.txt","category_path":"experiments/cat_target_short/assets/cuefr_labels.txt","subjectId":0},{"trial_type":"call-function","trial_index":60,"time_elapsed":614635,"internal_node_id":"0.0-60.0","PROLIFIC ID":"66465c850d9a3e177f2649fa","data_path":"experiments/cat_target_short/cuefr.h5","stimuli_path":"experiments/cat_target_short/assets/cuefr_pool.txt","category_path":"experiments/cat_target_short/assets/cuefr_labels.txt","subjectId":0},{"load_time":634354.599999994,"fixation_display_time":634354.599999994,"trial_type":"fixation","trial_index":61,"time_elapsed":615637,"internal_node_id":"0.0-61.0","PROLIFIC ID":"66465c850d9a3e177f2649fa","data_path":"experiments/cat_target_short/cuefr.h5","stimuli_path":"experiments/cat_target_short/assets/cuefr_pool.txt","category_path":"experiments/cat_target_short/assets/cuefr_labels.txt","subjectId":0},{"load_time":635356.400000006,"word_display_times":[635356.400000006,638358.5,641359.7999999821,644362,647363.599999994,650366.5],"word_list":["HAT","DENIM","CENTIPEDE","ROLLING PIN","TROMBONE","NEW ORLEANS"],"category_list":["CLOTHES","FABRICS","INSECTS","KITCHEN TOOLS","INSTRUMENTS","CITIES"],"trial_type":"item-presentation","trial_index":62,"time_elapsed":633649,"internal_node_id":"0.0-62.0","PROLIFIC ID":"66465c850d9a3e177f2649fa","data_path":"experiments/cat_target_short/cuefr.h5","stimuli_path":"experiments/cat_target_short/assets/cuefr_pool.txt","category_path":"experiments/cat_target_short/assets/cuefr_labels.txt","subjectId":0},{"load_time":653372.900000006,"recall_display_time":653372.900000006,"category_cue":"INSTRUMENTS","recall_responses":[],"recall_words":[],"recall_word_response_times":[],"category_target":334,"category_target_string":"TROMBONE","trial_type":"free-recall","trial_index":63,"time_elapsed":643655,"internal_node_id":"0.0-63.0","PROLIFIC ID":"66465c850d9a3e177f2649fa","data_path":"experiments/cat_target_short/cuefr.h5","stimuli_path":"experiments/cat_target_short/assets/cuefr_pool.txt","category_path":"experiments/cat_target_short/assets/cuefr_labels.txt","subjectId":0},{"load_time":663379.2999999821,"recall_display_time":663379.2999999821,"category_cue":"","recall_responses":[["h",1822],["a",376],["t",72],["ENTER",216],["c",360],["e",160],["n",168],["t",408],["i",192],["p",264],["e",96],["d",144],["e",143],["ENTER",168],["t",776],["o",96],["backspace",248],["backspace",160],["r",121],["o",88],["l",168],["l",152],["e",80],["r",56],["ENTER",192],["d",3632],["e",128],["n",136],["i",95],["m",168],["ENTER",168]],"recall_words":["hat","centipede","roller","denim"],"recall_word_response_times":[1822,360,776,3632],"category_target":"","category_target_string":"","trial_type":"free-recall","trial_index":64,"time_elapsed":673661,"internal_node_id":"0.0-64.0","PROLIFIC ID":"66465c850d9a3e177f2649fa","data_path":"experiments/cat_target_short/cuefr.h5","stimuli_path":"experiments/cat_target_short/assets/cuefr_pool.txt","category_path":"experiments/cat_target_short/assets/cuefr_labels.txt","subjectId":0},{"trial_type":"call-function","trial_index":65,"time_elapsed":673661,"internal_node_id":"0.0-65.0","PROLIFIC ID":"66465c850d9a3e177f2649fa","data_path":"experiments/cat_target_short/cuefr.h5","stimuli_path":"experiments/cat_target_short/assets/cuefr_pool.txt","category_path":"experiments/cat_target_short/assets/cuefr_labels.txt","subjectId":0},{"view_history":[{"page_index":0,"viewing_time":3576}],"rt":3577,"trial_index":66,"trial_count":20,"message":"<p >When you're ready to proceed, press Next.</p>","trial_type":"instructions","time_elapsed":677238,"internal_node_id":"0.0-66.0","PROLIFIC ID":"66465c850d9a3e177f2649fa","data_path":"experiments/cat_target_short/cuefr.h5","stimuli_path":"experiments/cat_target_short/assets/cuefr_pool.txt","category_path":"experiments/cat_target_short/assets/cuefr_labels.txt","subjectId":0},{"trial_type":"call-function","trial_index":67,"time_elapsed":677238,"internal_node_id":"0.0-67.0","PROLIFIC ID":"66465c850d9a3e177f2649fa","data_path":"experiments/cat_target_short/cuefr.h5","stimuli_path":"experiments/cat_target_short/assets/cuefr_pool.txt","category_path":"experiments/cat_target_short/assets/cuefr_labels.txt","subjectId":0},{"load_time":696957.400000006,"fixation_display_time":696957.400000006,"trial_type":"fixation","trial_index":68,"time_elapsed":678238,"internal_node_id":"0.0-68.0","PROLIFIC ID":"66465c850d9a3e177f2649fa","data_path":"experiments/cat_target_short/cuefr.h5","stimuli_path":"experiments/cat_target_short/assets/cuefr_pool.txt","category_path":"experiments/cat_target_short/assets/cuefr_labels.txt","subjectId":0},{"load_time":697958,"word_display_times":[697958,700960.7999999821,703962.5,706963.5,709965.900000006,712967.6999999881],"word_list":["AUDI","HALIBUT","SODIUM","TSUNAMI","STAR FRUIT","CONDOMINIUM"],"category_list":["CAR MODELS","FISH","ELEMENTS","WEATHER TERMS","FRUIT","DWELLINGS"],"trial_type":"item-presentation","trial_index":69,"time_elapsed":696251,"internal_node_id":"0.0-69.0","PROLIFIC ID":"66465c850d9a3e177f2649fa","data_path":"experiments/cat_target_short/cuefr.h5","stimuli_path":"experiments/cat_target_short/assets/cuefr_pool.txt","category_path":"experiments/cat_target_short/assets/cuefr_labels.txt","subjectId":0},{"load_time":715974.7999999821,"recall_display_time":715974.900000006,"category_cue":"","recall_responses":[["a",1308],["u",159],["d",128],["o",704],["backspace",576],["i",248],["ENTER",368]],"recall_words":["audi"],"recall_word_response_times":[1308],"category_target":0,"category_target_string":"","trial_type":"free-recall","trial_index":70,"time_elapsed":699748,"internal_node_id":"0.0-70.0","PROLIFIC ID":"66465c850d9a3e177f2649fa","data_path":"experiments/cat_target_short/cuefr.h5","stimuli_path":"experiments/cat_target_short/assets/cuefr_pool.txt","category_path":"experiments/cat_target_short/assets/cuefr_labels.txt","subjectId":0},{"load_time":719468.099999994,"recall_display_time":719468.099999994,"category_cue":"","recall_responses":[["h",873],["a",150],["l",192],["i",168],["b",192],["u",104],["t",144],["ENTER",344],["s",384],["o",104],["d",119],["i",136],["u",232],["m",216],["ENTER",696]],"recall_words":["halibut","sodium"],"recall_word_response_times":[873,384],"category_target":"","category_target_string":"","trial_type":"free-recall","trial_index":71,"time_elapsed":729749,"internal_node_id":"0.0-71.0","PROLIFIC ID":"66465c850d9a3e177f2649fa","data_path":"experiments/cat_target_short/cuefr.h5","stimuli_path":"experiments/cat_target_short/assets/cuefr_pool.txt","category_path":"experiments/cat_target_short/assets/cuefr_labels.txt","subjectId":0},{"trial_type":"call-function","trial_index":72,"time_elapsed":729749,"internal_node_id":"0.0-72.0","PROLIFIC ID":"66465c850d9a3e177f2649fa","data_path":"experiments/cat_target_short/cuefr.h5","stimuli_path":"experiments/cat_target_short/assets/cuefr_pool.txt","category_path":"experiments/cat_target_short/assets/cuefr_labels.txt","subjectId":0},{"view_history":[{"page_index":0,"viewing_time":2477}],"rt":2478,"trial_index":73,"trial_count":20,"message":"<p >When you're ready to proceed, press Next.</p>","trial_type":"instructions","time_elapsed":732227,"internal_node_id":"0.0-73.0","PROLIFIC ID":"66465c850d9a3e177f2649fa","data_path":"experiments/cat_target_short/cuefr.h5","stimuli_path":"experiments/cat_target_short/assets/cuefr_pool.txt","category_path":"experiments/cat_target_short/assets/cuefr_labels.txt","subjectId":0},{"trial_type":"call-function","trial_index":74,"time_elapsed":732228,"internal_node_id":"0.0-74.0","PROLIFIC ID":"66465c850d9a3e177f2649fa","data_path":"experiments/cat_target_short/cuefr.h5","stimuli_path":"experiments/cat_target_short/assets/cuefr_pool.txt","category_path":"experiments/cat_target_short/assets/cuefr_labels.txt","subjectId":0},{"load_time":751947.099999994,"fixation_display_time":751947.099999994,"trial_type":"fixation","trial_index":75,"time_elapsed":733228,"internal_node_id":"0.0-75.0","PROLIFIC ID":"66465c850d9a3e177f2649fa","data_path":"experiments/cat_target_short/cuefr.h5","stimuli_path":"experiments/cat_target_short/assets/cuefr_pool.txt","category_path":"experiments/cat_target_short/assets/cuefr_labels.txt","subjectId":0},{"load_time":752947.900000006,"word_display_times":[752947.900000006,755949.400000006,758951.900000006,761954.599999994,764956.599999994,767958.5],"word_list":["VALLEY","TOASTER","STUDENT","SCREW","SCHOONER","IDAHO"],"category_list":["GEOGRAPHY TERMS","KITCHEN TOOLS","OCCUPATIONS","CARPENTRY TOOLS","SHIPS","STATES"],"trial_type":"item-presentation","trial_index":76,"time_elapsed":751242,"internal_node_id":"0.0-76.0","PROLIFIC ID":"66465c850d9a3e177f2649fa","data_path":"experiments/cat_target_short/cuefr.h5","stimuli_path":"experiments/cat_target_short/assets/cuefr_pool.txt","category_path":"experiments/cat_target_short/assets/cuefr_labels.txt","subjectId":0},{"load_time":770966.900000006,"recall_display_time":770967,"category_cue":"OCCUPATIONS","recall_responses":[["s",3006],["t",119],["u",112],["d",128],["e",72],["n",88],["t",152],["ENTER",392]],"recall_words":["student"],"recall_word_response_times":[3006],"category_target":369,"category_target_string":"STUDENT","trial_type":"free-recall","trial_index":77,"time_elapsed":755318,"internal_node_id":"0.0-77.0","PROLIFIC ID":"66465c850d9a3e177f2649fa","data_path":"experiments/cat_target_short/cuefr.h5","stimuli_path":"experiments/cat_target_short/assets/cuefr_pool.txt","category_path":"experiments/cat_target_short/assets/cuefr_labels.txt","subjectId":0},{"load_time":775038,"recall_display_time":775038,"category_cue":"","recall_responses":[["v",879],["a",175],["s",16],["l",72],["backspace",359],["backspace",320],["l",232],["l",144],["e",89],["y",151],["ENTER",384],["t",352],["o",120],["a",120],["s",96],["t",96],["e",160],["r",104],["ENTER",240],["s",1401],["t",71],["u",144],["d",120],["e",96],["n",88],["t",144],["ENTER",248],["s",1977],["c",136],["r",264],["e",184],["w",72],["ENTER",128],["i",3689],["d",215],["o",120],["h",1953],["o",71],["ENTER",176],["i",976],["backspace",312],["d",80],["i",119],["a",73],["h",383],["o",80],["backspace",240],["backspace",144],["backspace",160],["backspace",144],["backspace",160],["i",192],["d",120],["a",152],["h",192],["o",72],["ENTER",1344]],"recall_words":["valley","toaster","student","screw","idoho","idaho"],"recall_word_response_times":[879,352,1401,1977,3689,976],"category_target":"","category_target_string":"","trial_type":"free-recall","trial_index":78,"time_elapsed":785320,"internal_node_id":"0.0-78.0","PROLIFIC ID":"66465c850d9a3e177f2649fa","data_path":"experiments/cat_target_short/cuefr.h5","stimuli_path":"experiments/cat_target_short/assets/cuefr_pool.txt","category_path":"experiments/cat_target_short/assets/cuefr_labels.txt","subjectId":0},{"trial_type":"call-function","trial_index":79,"time_elapsed":785320,"internal_node_id":"0.0-79.0","PROLIFIC ID":"66465c850d9a3e177f2649fa","data_path":"experiments/cat_target_short/cuefr.h5","stimuli_path":"experiments/cat_target_short/assets/cuefr_pool.txt","category_path":"experiments/cat_target_short/assets/cuefr_labels.txt","subjectId":0},{"view_history":[{"page_index":0,"viewing_time":2536}],"rt":2536,"trial_index":80,"trial_count":20,"message":"<p >When you're ready to proceed, press Next.</p>","trial_type":"instructions","time_elapsed":787856,"internal_node_id":"0.0-80.0","PROLIFIC ID":"66465c850d9a3e177f2649fa","data_path":"experiments/cat_target_short/cuefr.h5","stimuli_path":"experiments/cat_target_short/assets/cuefr_pool.txt","category_path":"experiments/cat_target_short/assets/cuefr_labels.txt","subjectId":0},{"trial_type":"call-function","trial_index":81,"time_elapsed":787856,"internal_node_id":"0.0-81.0","PROLIFIC ID":"66465c850d9a3e177f2649fa","data_path":"experiments/cat_target_short/cuefr.h5","stimuli_path":"experiments/cat_target_short/assets/cuefr_pool.txt","category_path":"experiments/cat_target_short/assets/cuefr_labels.txt","subjectId":0},{"load_time":807575.7999999821,"fixation_display_time":807575.7999999821,"trial_type":"fixation","trial_index":82,"time_elapsed":788857,"internal_node_id":"0.0-82.0","PROLIFIC ID":"66465c850d9a3e177f2649fa","data_path":"experiments/cat_target_short/cuefr.h5","stimuli_path":"experiments/cat_target_short/assets/cuefr_pool.txt","category_path":"experiments/cat_target_short/assets/cuefr_labels.txt","subjectId":0},{"load_time":808577.099999994,"word_display_times":[808577.099999994,811580.599999994,814582.5,817583.599999994,820585.7999999821,823588.599999994],"word_list":["GATORADE","LAVENDER","MERCURY","MITSUBISHI","WRIST","CAPTAIN"],"category_list":["BEVERAGES","COLORS","ELEMENTS","CAR MODELS","BODY PARTS","MILITARY TITLES"],"trial_type":"item-presentation","trial_index":83,"time_elapsed":806871,"internal_node_id":"0.0-83.0","PROLIFIC ID":"66465c850d9a3e177f2649fa","data_path":"experiments/cat_target_short/cuefr.h5","stimuli_path":"experiments/cat_target_short/assets/cuefr_pool.txt","category_path":"experiments/cat_target_short/assets/cuefr_labels.txt","subjectId":0},{"load_time":826595,"recall_display_time":826595,"category_cue":"COLORS","recall_responses":[["l",3452],["a",143],["v",192],["e",120],["n",120],["d",352],["e",96],["r",144],["ENTER",849]],"recall_words":["lavender"],"recall_word_response_times":[3452],"category_target":135,"category_target_string":"LAVENDER","trial_type":"free-recall","trial_index":84,"time_elapsed":812343,"internal_node_id":"0.0-84.0","PROLIFIC ID":"66465c850d9a3e177f2649fa","data_path":"experiments/cat_target_short/cuefr.h5","stimuli_path":"experiments/cat_target_short/assets/cuefr_pool.txt","category_path":"experiments/cat_target_short/assets/cuefr_labels.txt","subjectId":0},{"load_time":832063.7999999821,"recall_display_time":832063.7999999821,"category_cue":"","recall_responses":[["l",342],["a",96],["v",136],["e",103],["n",120],["d",152],["e",96],["r",144],["ENTER",408],["g",224],["a",120],["t",224],["e",608],["r",112],["a",592],["d",120],["e",120],["ENTER",512],["m",2728],["i",120],["t",143],["s",200],["u",144],["b",208],["i",88],["s",168],["h",105],["i",96],["ENTER",2120]],"recall_words":["lavender","gaterade","mitsubishi"],"recall_word_response_times":[342,224,2728],"category_target":"","category_target_string":"","trial_type":"free-recall","trial_index":85,"time_elapsed":842346,"internal_node_id":"0.0-85.0","PROLIFIC ID":"66465c850d9a3e177f2649fa","data_path":"experiments/cat_target_short/cuefr.h5","stimuli_path":"experiments/cat_target_short/assets/cuefr_pool.txt","category_path":"experiments/cat_target_short/assets/cuefr_labels.txt","subjectId":0},{"trial_type":"call-function","trial_index":86,"time_elapsed":842346,"internal_node_id":"0.0-86.0","PROLIFIC ID":"66465c850d9a3e177f2649fa","data_path":"experiments/cat_target_short/cuefr.h5","stimuli_path":"experiments/cat_target_short/assets/cuefr_pool.txt","category_path":"experiments/cat_target_short/assets/cuefr_labels.txt","subjectId":0},{"view_history":[{"page_index":0,"viewing_time":2177}],"rt":2177,"trial_index":87,"trial_count":20,"message":"<p >When you're ready to proceed, press Next.</p>","trial_type":"instructions","time_elapsed":844524,"internal_node_id":"0.0-87.0","PROLIFIC ID":"66465c850d9a3e177f2649fa","data_path":"experiments/cat_target_short/cuefr.h5","stimuli_path":"experiments/cat_target_short/assets/cuefr_pool.txt","category_path":"experiments/cat_target_short/assets/cuefr_labels.txt","subjectId":0},{"trial_type":"call-function","trial_index":88,"time_elapsed":844524,"internal_node_id":"0.0-88.0","PROLIFIC ID":"66465c850d9a3e177f2649fa","data_path":"experiments/cat_target_short/cuefr.h5","stimuli_path":"experiments/cat_target_short/assets/cuefr_pool.txt","category_path":"experiments/cat_target_short/assets/cuefr_labels.txt","subjectId":0},{"load_time":864243.1999999881,"fixation_display_time":864243.1999999881,"trial_type":"fixation","trial_index":89,"time_elapsed":845524,"internal_node_id":"0.0-89.0","PROLIFIC ID":"66465c850d9a3e177f2649fa","data_path":"experiments/cat_target_short/cuefr.h5","stimuli_path":"experiments/cat_target_short/assets/cuefr_pool.txt","category_path":"experiments/cat_target_short/assets/cuefr_labels.txt","subjectId":0},{"load_time":865243.7999999821,"word_display_times":[865243.7999999821,868246.5,871248.5,874250.6999999881,877252.900000006,880254.7999999821],"word_list":["LACROSSE","CARNATION","COFFEE TABLE","POT","EUCALYPTUS","LINEN"],"category_list":["SPORTS","FLOWERS","FURNITURE","KITCHEN TOOLS","TREES","FABRICS"],"trial_type":"item-presentation","trial_index":90,"time_elapsed":863539,"internal_node_id":"0.0-90.0","PROLIFIC ID":"66465c850d9a3e177f2649fa","data_path":"experiments/cat_target_short/cuefr.h5","stimuli_path":"experiments/cat_target_short/assets/cuefr_pool.txt","category_path":"experiments/cat_target_short/assets/cuefr_labels.txt","subjectId":0},{"load_time":883263.599999994,"recall_display_time":883263.7999999821,"category_cue":"","recall_responses":[["l",1953],["a",127],["c",168],["r",200],["o",120],["s",88],["s",192],["e",80],["ENTER",144]],"recall_words":["lacrosse"],"recall_word_response_times":[1953],"category_target":0,"category_target_string":"","trial_type":"free-recall","trial_index":91,"time_elapsed":866616,"internal_node_id":"0.0-91.0","PROLIFIC ID":"66465c850d9a3e177f2649fa","data_path":"experiments/cat_target_short/cuefr.h5","stimuli_path":"experiments/cat_target_short/assets/cuefr_pool.txt","category_path":"experiments/cat_target_short/assets/cuefr_labels.txt","subjectId":0},{"load_time":886336.599999994,"recall_display_time":886336.599999994,"category_cue":"","recall_responses":[["l",2751],["i",952],["n",167],["e",104],["n",64],["ENTER",1096],["c",10273],["a",168],["r",192],["n",136],["a",104],["t",88],["i",56],["o",136],["n",152],["ENTER",192]],"recall_words":["linen","carnation"],"recall_word_response_times":[2751,10273],"category_target":"","category_target_string":"","trial_type":"free-recall","trial_index":92,"time_elapsed":896619,"internal_node_id":"0.0-92.0","PROLIFIC ID":"66465c850d9a3e177f2649fa","data_path":"experiments/cat_target_short/cuefr.h5","stimuli_path":"experiments/cat_target_short/assets/cuefr_pool.txt","category_path":"experiments/cat_target_short/assets/cuefr_labels.txt","subjectId":0},{"trial_type":"call-function","trial_index":93,"time_elapsed":896619,"internal_node_id":"0.0-93.0","PROLIFIC ID":"66465c850d9a3e177f2649fa","data_path":"experiments/cat_target_short/cuefr.h5","stimuli_path":"experiments/cat_target_short/assets/cuefr_pool.txt","category_path":"experiments/cat_target_short/assets/cuefr_labels.txt","subjectId":0},{"view_history":[{"page_index":0,"viewing_time":2184}],"rt":2185,"trial_index":94,"trial_count":20,"message":"<p >When you're ready to proceed, press Next.</p>","trial_type":"instructions","time_elapsed":898804,"internal_node_id":"0.0-94.0","PROLIFIC ID":"66465c850d9a3e177f2649fa","data_path":"experiments/cat_target_short/cuefr.h5","stimuli_path":"experiments/cat_target_short/assets/cuefr_pool.txt","category_path":"experiments/cat_target_short/assets/cuefr_labels.txt","subjectId":0},{"trial_type":"call-function","trial_index":95,"time_elapsed":898804,"internal_node_id":"0.0-95.0","PROLIFIC ID":"66465c850d9a3e177f2649fa","data_path":"experiments/cat_target_short/cuefr.h5","stimuli_path":"experiments/cat_target_short/assets/cuefr_pool.txt","category_path":"experiments/cat_target_short/assets/cuefr_labels.txt","subjectId":0},{"load_time":918523.599999994,"fixation_display_time":918523.599999994,"trial_type":"fixation","trial_index":96,"time_elapsed":899805,"internal_node_id":"0.0-96.0","PROLIFIC ID":"66465c850d9a3e177f2649fa","data_path":"experiments/cat_target_short/cuefr.h5","stimuli_path":"experiments/cat_target_short/assets/cuefr_pool.txt","category_path":"experiments/cat_target_short/assets/cuefr_labels.txt","subjectId":0},{"load_time":919525,"word_display_times":[919525,922527.5,925529.6999999881,928531.5,931532.6999999881,934534.599999994],"word_list":["MISSOURI","PUNCH","PIRANHA","TIGER","BULLETIN","PICCOLO"],"category_list":["STATES","BEVERAGES","FISH","FOUR-FOOTED ANIMALS","READING MATERIALS","INSTRUMENTS"],"trial_type":"item-presentation","trial_index":97,"time_elapsed":917817,"internal_node_id":"0.0-97.0","PROLIFIC ID":"66465c850d9a3e177f2649fa","data_path":"experiments/cat_target_short/cuefr.h5","stimuli_path":"experiments/cat_target_short/assets/cuefr_pool.txt","category_path":"experiments/cat_target_short/assets/cuefr_labels.txt","subjectId":0},{"load_time":937541.5,"recall_display_time":937541.5,"category_cue":"","recall_responses":[["m",1396],["i",55],["s",112],["s",192],["o",128],["r",160],["c",192],["backspace",280],["u",200],["r",144],["backspace",376],["i",144],["backspace",880],["backspace",168],["backspace",184],["r",1273],["i",872],["ENTER",840]],"recall_words":["missori"],"recall_word_response_times":[1396],"category_target":0,"category_target_string":"","trial_type":"free-recall","trial_index":98,"time_elapsed":925418,"internal_node_id":"0.0-98.0","PROLIFIC ID":"66465c850d9a3e177f2649fa","data_path":"experiments/cat_target_short/cuefr.h5","stimuli_path":"experiments/cat_target_short/assets/cuefr_pool.txt","category_path":"experiments/cat_target_short/assets/cuefr_labels.txt","subjectId":0},{"load_time":945138.6999999881,"recall_display_time":945138.6999999881,"category_cue":"","recall_responses":[["t",1551],["i",111],["g",96],["e",128],["r",144],["ENTER",280],["p",1880],["u",127],["n",168],["c",96],["h",136],["ENTER",672]],"recall_words":["tiger","punch"],"recall_word_response_times":[1551,1880],"category_target":"","category_target_string":"","trial_type":"free-recall","trial_index":99,"time_elapsed":955421,"internal_node_id":"0.0-99.0","PROLIFIC ID":"66465c850d9a3e177f2649fa","data_path":"experiments/cat_target_short/cuefr.h5","stimuli_path":"experiments/cat_target_short/assets/cuefr_pool.txt","category_path":"experiments/cat_target_short/assets/cuefr_labels.txt","subjectId":0},{"trial_type":"call-function","trial_index":100,"time_elapsed":955421,"internal_node_id":"0.0-100.0","PROLIFIC ID":"66465c850d9a3e177f2649fa","data_path":"experiments/cat_target_short/cuefr.h5","stimuli_path":"experiments/cat_target_short/assets/cuefr_pool.txt","category_path":"experiments/cat_target_short/assets/cuefr_labels.txt","subjectId":0},{"view_history":[{"page_index":0,"viewing_time":1133}],"rt":1133,"trial_index":101,"trial_count":20,"message":"<p >When you're ready to proceed, press Next.</p>","trial_type":"instructions","time_elapsed":956554,"internal_node_id":"0.0-101.0","PROLIFIC ID":"66465c850d9a3e177f2649fa","data_path":"experiments/cat_target_short/cuefr.h5","stimuli_path":"experiments/cat_target_short/assets/cuefr_pool.txt","category_path":"experiments/cat_target_short/assets/cuefr_labels.txt","subjectId":0},{"trial_type":"call-function","trial_index":102,"time_elapsed":956555,"internal_node_id":"0.0-102.0","PROLIFIC ID":"66465c850d9a3e177f2649fa","data_path":"experiments/cat_target_short/cuefr.h5","stimuli_path":"experiments/cat_target_short/assets/cuefr_pool.txt","category_path":"experiments/cat_target_short/assets/cuefr_labels.txt","subjectId":0},{"load_time":976274.099999994,"fixation_display_time":976274.099999994,"trial_type":"fixation","trial_index":103,"time_elapsed":957555,"internal_node_id":"0.0-103.0","PROLIFIC ID":"66465c850d9a3e177f2649fa","data_path":"experiments/cat_target_short/cuefr.h5","stimuli_path":"experiments/cat_target_short/assets/cuefr_pool.txt","category_path":"experiments/cat_target_short/assets/cuefr_labels.txt","subjectId":0},{"load_time":977274.900000006,"word_display_times":[977274.900000006,980276.2999999821,983278.1999999881,986279.7999999821,989282.6999999881,992283.6999999881],"word_list":["SPINACH","ORLANDO","COMMANDER","MIXER","TAN","DODGE"],"category_list":["VEGETABLES","CITIES","MILITARY TITLES","KITCHEN TOOLS","COLORS","CAR MODELS"],"trial_type":"item-presentation","trial_index":104,"time_elapsed":975567,"internal_node_id":"0.0-104.0","PROLIFIC ID":"66465c850d9a3e177f2649fa","data_path":"experiments/cat_target_short/cuefr.h5","stimuli_path":"experiments/cat_target_short/assets/cuefr_pool.txt","category_path":"experiments/cat_target_short/assets/cuefr_labels.txt","subjectId":0},{"load_time":995291.900000006,"recall_display_time":995291.900000006,"category_cue":"COLORS","recall_responses":[["t",3471],["a",135],["n",96],["ENTER",424]],"recall_words":["tan"],"recall_word_response_times":[3471],"category_target":140,"category_target_string":"TAN","trial_type":"free-recall","trial_index":105,"time_elapsed":979700,"internal_node_id":"0.0-105.0","PROLIFIC ID":"66465c850d9a3e177f2649fa","data_path":"experiments/cat_target_short/cuefr.h5","stimuli_path":"experiments/cat_target_short/assets/cuefr_pool.txt","category_path":"experiments/cat_target_short/assets/cuefr_labels.txt","subjectId":0},{"load_time":999420.2999999821,"recall_display_time":999420.400000006,"category_cue":"","recall_responses":[["s",1191],["p",144],["n",224],["a",128],["c",96],["h",80],["backspace",736],["backspace",168],["backspace",184],["backspace",552],["i",360],["n",264],["a",312],["c",88],["h",80],["ENTER",569],["c",240],["o",64],["m",151],["m",136],["a",73],["n",119],["d",72],["e",136],["r",144],["ENTER",288],["t",1905],["a",127],["n",97],["ENTER",239],["o",2209],["r",103],["l",160],["a",96],["n",104],["d",104],["o",104],["ENTER",264]],"recall_words":["spinach","commander","tan","orlando"],"recall_word_response_times":[1191,240,1905,2209],"category_target":"","category_target_string":"","trial_type":"free-recall","trial_index":106,"time_elapsed":1009702,"internal_node_id":"0.0-106.0","PROLIFIC ID":"66465c850d9a3e177f2649fa","data_path":"experiments/cat_target_short/cuefr.h5","stimuli_path":"experiments/cat_target_short/assets/cuefr_pool.txt","category_path":"experiments/cat_target_short/assets/cuefr_labels.txt","subjectId":0},{"trial_type":"call-function","trial_index":107,"time_elapsed":1009702,"internal_node_id":"0.0-107.0","PROLIFIC ID":"66465c850d9a3e177f2649fa","data_path":"experiments/cat_target_short/cuefr.h5","stimuli_path":"experiments/cat_target_short/assets/cuefr_pool.txt","category_path":"experiments/cat_target_short/assets/cuefr_labels.txt","subjectId":0},{"view_history":[{"page_index":0,"viewing_time":4036}],"rt":4036,"trial_index":108,"trial_count":20,"message":"<p >When you're ready to proceed, press Next.</p>","trial_type":"instructions","time_elapsed":1013738,"internal_node_id":"0.0-108.0","PROLIFIC ID":"66465c850d9a3e177f2649fa","data_path":"experiments/cat_target_short/cuefr.h5","stimuli_path":"experiments/cat_target_short/assets/cuefr_pool.txt","category_path":"experiments/cat_target_short/assets/cuefr_labels.txt","subjectId":0},{"trial_type":"call-function","trial_index":109,"time_elapsed":1013739,"internal_node_id":"0.0-109.0","PROLIFIC ID":"66465c850d9a3e177f2649fa","data_path":"experiments/cat_target_short/cuefr.h5","stimuli_path":"experiments/cat_target_short/assets/cuefr_pool.txt","category_path":"experiments/cat_target_short/assets/cuefr_labels.txt","subjectId":0},{"load_time":1033458,"fixation_display_time":1033458,"trial_type":"fixation","trial_index":110,"time_elapsed":1014739,"internal_node_id":"0.0-110.0","PROLIFIC ID":"66465c850d9a3e177f2649fa","data_path":"experiments/cat_target_short/cuefr.h5","stimuli_path":"experiments/cat_target_short/assets/cuefr_pool.txt","category_path":"experiments/cat_target_short/assets/cuefr_labels.txt","subjectId":0},{"load_time":1034458.7999999821,"word_display_times":[1034458.7999999821,1037461.5,1040464.1999999881,1043466.599999994,1046469.5,1049471.400000006],"word_list":["OTTOMAN","BATHROOM","GREECE","ESSAY","BASIL","CANOE"],"category_list":["FURNITURE","BUILDING PARTS","COUNTRIES","READING MATERIALS","SEASONINGS","SHIPS"],"trial_type":"item-presentation","trial_index":111,"time_elapsed":1032754,"internal_node_id":"0.0-111.0","PROLIFIC ID":"66465c850d9a3e177f2649fa","data_path":"experiments/cat_target_short/cuefr.h5","stimuli_path":"experiments/cat_target_short/assets/cuefr_pool.txt","category_path":"experiments/cat_target_short/assets/cuefr_labels.txt","subjectId":0},{"load_time":1052478.699999988,"recall_display_time":1052478.7999999821,"category_cue":"","recall_responses":[["o",1134],["t",144],["t",192],["o",136],["m",192],["a",120],["n",113],["ENTER",319]],"recall_words":["ottoman"],"recall_word_response_times":[1134],"category_target":0,"category_target_string":"","trial_type":"free-recall","trial_index":112,"time_elapsed":1035109,"internal_node_id":"0.0-112.0","PROLIFIC ID":"66465c850d9a3e177f2649fa","data_path":"experiments/cat_target_short/cuefr.h5","stimuli_path":"experiments/cat_target_short/assets/cuefr_pool.txt","category_path":"experiments/cat_target_short/assets/cuefr_labels.txt","subjectId":0},{"load_time":1054829.5,"recall_display_time":1054829.599999994,"category_cue":"","recall_responses":[["b",351],["a",95],["t",112],["h",104],["r",408],["o",96],["o",136],["m",144],["ENTER",184],["g",224],["r",208],["e",168],["a",104],["s",1192],["e",112],["backspace",304],["backspace",144],["c",176],["backspace",280],["backspace",152],["c",48],["e",104],["backspace",936],["backspace",168],["s",400],["e",104],["backspace",704],["backspace",152],["a",112],["s",96],["e",96],["ENTER",616],["b",7352],["a",111],["s",120],["i",136],["l",144],["ENTER",312]],"recall_words":["bathroom","grease","basil"],"recall_word_response_times":[351,224,7352],"category_target":"","category_target_string":"","trial_type":"free-recall","trial_index":113,"time_elapsed":1065112,"internal_node_id":"0.0-113.0","PROLIFIC ID":"66465c850d9a3e177f2649fa","data_path":"experiments/cat_target_short/cuefr.h5","stimuli_path":"experiments/cat_target_short/assets/cuefr_pool.txt","category_path":"experiments/cat_target_short/assets/cuefr_labels.txt","subjectId":0},{"trial_type":"call-function","trial_index":114,"time_elapsed":1065112,"internal_node_id":"0.0-114.0","PROLIFIC ID":"66465c850d9a3e177f2649fa","data_path":"experiments/cat_target_short/cuefr.h5","stimuli_path":"experiments/cat_target_short/assets/cuefr_pool.txt","category_path":"experiments/cat_target_short/assets/cuefr_labels.txt","subjectId":0},{"view_history":[{"page_index":0,"viewing_time":1333}],"rt":1333,"trial_index":115,"trial_count":20,"message":"<p >When you're ready to proceed, press Next.</p>","trial_type":"instructions","time_elapsed":1066446,"internal_node_id":"0.0-115.0","PROLIFIC ID":"66465c850d9a3e177f2649fa","data_path":"experiments/cat_target_short/cuefr.h5","stimuli_path":"experiments/cat_target_short/assets/cuefr_pool.txt","category_path":"experiments/cat_target_short/assets/cuefr_labels.txt","subjectId":0},{"trial_type":"call-function","trial_index":116,"time_elapsed":1066446,"internal_node_id":"0.0-116.0","PROLIFIC ID":"66465c850d9a3e177f2649fa","data_path":"experiments/cat_target_short/cuefr.h5","stimuli_path":"experiments/cat_target_short/assets/cuefr_pool.txt","category_path":"experiments/cat_target_short/assets/cuefr_labels.txt","subjectId":0},{"load_time":1086165.400000006,"fixation_display_time":1086165.400000006,"trial_type":"fixation","trial_index":117,"time_elapsed":1067447,"internal_node_id":"0.0-117.0","PROLIFIC ID":"66465c850d9a3e177f2649fa","data_path":"experiments/cat_target_short/cuefr.h5","stimuli_path":"experiments/cat_target_short/assets/cuefr_pool.txt","category_path":"experiments/cat_target_short/assets/cuefr_labels.txt","subjectId":0},{"load_time":1087167,"word_display_times":[1087167,1090168.599999994,1093171.5,1096173.2999999821,1099175.400000006,1102177.400000006],"word_list":["BROWN","LACE","CADET","DOGWOOD","TRACK","MEASURING CUP"],"category_list":["COLORS","FABRICS","MILITARY TITLES","TREES","SPORTS","KITCHEN TOOLS"],"trial_type":"item-presentation","trial_index":118,"time_elapsed":1085460,"internal_node_id":"0.0-118.0","PROLIFIC ID":"66465c850d9a3e177f2649fa","data_path":"experiments/cat_target_short/cuefr.h5","stimuli_path":"experiments/cat_target_short/assets/cuefr_pool.txt","category_path":"experiments/cat_target_short/assets/cuefr_labels.txt","subjectId":0},{"load_time":1105184.400000006,"recall_display_time":1105184.400000006,"category_cue":"MILITARY TITLES","recall_responses":[["c",1870],["a",159],["d",176],["e",120],["t",208],["ENTER",456]],"recall_words":["cadet"],"recall_word_response_times":[1870],"category_target":543,"category_target_string":"CADET","trial_type":"free-recall","trial_index":119,"time_elapsed":1088455,"internal_node_id":"0.0-119.0","PROLIFIC ID":"66465c850d9a3e177f2649fa","data_path":"experiments/cat_target_short/cuefr.h5","stimuli_path":"experiments/cat_target_short/assets/cuefr_pool.txt","category_path":"experiments/cat_target_short/assets/cuefr_labels.txt","subjectId":0},{"load_time":1108175.400000006,"recall_display_time":1108175.400000006,"category_cue":"","recall_responses":[["c",230],["a",176],["d",192],["e",112],["t",240],["ENTER",448],["b",360],["r",192],["o",96],["w",120],["n",112],["ENTER",240],["l",224],["a",72],["c",184],["e",144],["ENTER",576],["d",1632],["o",176],["g",120],["w",208],["o",104],["o",160],["d",96],["ENTER",1153],["m",5112],["e",104],["a",119],["s",120],["u",168],["r",112],["i",96],["n",136],["g",56],[" ",120],["c",88],["u",72],["p",144],["ENTER",272]],"recall_words":["cadet","brown","lace","dogwood","measuring cup"],"recall_word_response_times":[230,360,224,1632,5112],"category_target":"","category_target_string":"","trial_type":"free-recall","trial_index":120,"time_elapsed":1118457,"internal_node_id":"0.0-120.0","PROLIFIC ID":"66465c850d9a3e177f2649fa","data_path":"experiments/cat_target_short/cuefr.h5","stimuli_path":"experiments/cat_target_short/assets/cuefr_pool.txt","category_path":"experiments/cat_target_short/assets/cuefr_labels.txt","subjectId":0},{"trial_type":"call-function","trial_index":121,"time_elapsed":1118457,"internal_node_id":"0.0-121.0","PROLIFIC ID":"66465c850d9a3e177f2649fa","data_path":"experiments/cat_target_short/cuefr.h5","stimuli_path":"experiments/cat_target_short/assets/cuefr_pool.txt","category_path":"experiments/cat_target_short/assets/cuefr_labels.txt","subjectId":0},{"view_history":[{"page_index":0,"viewing_time":2007}],"rt":2007,"trial_index":122,"trial_count":20,"message":"<p >When you're ready to proceed, press Next.</p>","trial_type":"instructions","time_elapsed":1120464,"internal_node_id":"0.0-122.0","PROLIFIC ID":"66465c850d9a3e177f2649fa","data_path":"experiments/cat_target_short/cuefr.h5","stimuli_path":"experiments/cat_target_short/assets/cuefr_pool.txt","category_path":"experiments/cat_target_short/assets/cuefr_labels.txt","subjectId":0},{"trial_type":"call-function","trial_index":123,"time_elapsed":1120465,"internal_node_id":"0.0-123.0","PROLIFIC ID":"66465c850d9a3e177f2649fa","data_path":"experiments/cat_target_short/cuefr.h5","stimuli_path":"experiments/cat_target_short/assets/cuefr_pool.txt","category_path":"experiments/cat_target_short/assets/cuefr_labels.txt","subjectId":0},{"load_time":1140183.900000006,"fixation_display_time":1140183.900000006,"trial_type":"fixation","trial_index":124,"time_elapsed":1121466,"internal_node_id":"0.0-124.0","PROLIFIC ID":"66465c850d9a3e177f2649fa","data_path":"experiments/cat_target_short/cuefr.h5","stimuli_path":"experiments/cat_target_short/assets/cuefr_pool.txt","category_path":"experiments/cat_target_short/assets/cuefr_labels.txt","subjectId":0},{"load_time":1141185.599999994,"word_display_times":[1141185.599999994,1144188.400000006,1147190.599999994,1150193.099999994,1153194.2999999821,1156195.7999999821],"word_list":["CHILE","CANTALOUPE","LEAFLET","DRESSER","DESERT","SOY SAUCE"],"category_list":["COUNTRIES","FRUIT","READING MATERIALS","FURNITURE","GEOGRAPHY TERMS","SEASONINGS"],"trial_type":"item-presentation","trial_index":125,"time_elapsed":1139479,"internal_node_id":"0.0-125.0","PROLIFIC ID":"66465c850d9a3e177f2649fa","data_path":"experiments/cat_target_short/cuefr.h5","stimuli_path":"experiments/cat_target_short/assets/cuefr_pool.txt","category_path":"experiments/cat_target_short/assets/cuefr_labels.txt","subjectId":0},{"load_time":1159203.400000006,"recall_display_time":1159203.400000006,"category_cue":"","recall_responses":[["c",1164],["h",135],["i",128],["l",208],["e",192],["ENTER",856]],"recall_words":["chile"],"recall_word_response_times":[1164],"category_target":0,"category_target_string":"","trial_type":"free-recall","trial_index":126,"time_elapsed":1142169,"internal_node_id":"0.0-126.0","PROLIFIC ID":"66465c850d9a3e177f2649fa","data_path":"experiments/cat_target_short/cuefr.h5","stimuli_path":"experiments/cat_target_short/assets/cuefr_pool.txt","category_path":"experiments/cat_target_short/assets/cuefr_labels.txt","subjectId":0},{"load_time":1161889,"recall_display_time":1161889,"category_cue":"","recall_responses":[["c",1007],["a",184],["n",120],["t",336],["a",96],["l",232],["o",360],["p",152],["e",160],["ENTER",424],["e",1192],["l",80],["backspace",232],["backspace",152],["l",160],["e",64],["a",88],["f",176],["l",424],["e",120],["t",128],["ENTER",280]],"recall_words":["cantalope","leaflet"],"recall_word_response_times":[1007,1192],"category_target":"","category_target_string":"","trial_type":"free-recall","trial_index":127,"time_elapsed":1172170,"internal_node_id":"0.0-127.0","PROLIFIC ID":"66465c850d9a3e177f2649fa","data_path":"experiments/cat_target_short/cuefr.h5","stimuli_path":"experiments/cat_target_short/assets/cuefr_pool.txt","category_path":"experiments/cat_target_short/assets/cuefr_labels.txt","subjectId":0},{"trial_type":"call-function","trial_index":128,"time_elapsed":1172170,"internal_node_id":"0.0-128.0","PROLIFIC ID":"66465c850d9a3e177f2649fa","data_path":"experiments/cat_target_short/cuefr.h5","stimuli_path":"experiments/cat_target_short/assets/cuefr_pool.txt","category_path":"experiments/cat_target_short/assets/cuefr_labels.txt","subjectId":0},{"view_history":[{"page_index":0,"viewing_time":2172}],"rt":2173,"trial_index":129,"trial_count":20,"message":"<p >When you're ready to proceed, press Next.</p>","trial_type":"instructions","time_elapsed":1174343,"internal_node_id":"0.0-129.0","PROLIFIC ID":"66465c850d9a3e177f2649fa","data_path":"experiments/cat_target_short/cuefr.h5","stimuli_path":"experiments/cat_target_short/assets/cuefr_pool.txt","category_path":"experiments/cat_target_short/assets/cuefr_labels.txt","subjectId":0},{"trial_type":"call-function","trial_index":130,"time_elapsed":1174343,"internal_node_id":"0.0-130.0","PROLIFIC ID":"66465c850d9a3e177f2649fa","data_path":"experiments/cat_target_short/cuefr.h5","stimuli_path":"experiments/cat_target_short/assets/cuefr_pool.txt","category_path":"experiments/cat_target_short/assets/cuefr_labels.txt","subjectId":0},{"load_time":1194062.599999994,"fixation_display_time":1194062.599999994,"trial_type":"fixation","trial_index":131,"time_elapsed":1175345,"internal_node_id":"0.0-131.0","PROLIFIC ID":"66465c850d9a3e177f2649fa","data_path":"experiments/cat_target_short/cuefr.h5","stimuli_path":"experiments/cat_target_short/assets/cuefr_pool.txt","category_path":"experiments/cat_target_short/assets/cuefr_labels.txt","subjectId":0},{"load_time":1195064.5,"word_display_times":[1195064.5,1198066.199999988,1201068.400000006,1204070.5,1207072.099999994,1210073.199999988],"word_list":["MAJOR","SANDER","MAROON","BONE","ENGINEER","RHODE ISLAND"],"category_list":["MILITARY TITLES","CARPENTRY TOOLS","COLORS","BODY PARTS","OCCUPATIONS","STATES"],"trial_type":"item-presentation","trial_index":132,"time_elapsed":1193356,"internal_node_id":"0.0-132.0","PROLIFIC ID":"66465c850d9a3e177f2649fa","data_path":"experiments/cat_target_short/cuefr.h5","stimuli_path":"experiments/cat_target_short/assets/cuefr_pool.txt","category_path":"experiments/cat_target_short/assets/cuefr_labels.txt","subjectId":0},{"load_time":1213081.699999988,"recall_display_time":1213081.699999988,"category_cue":"OCCUPATIONS","recall_responses":[["m",1920],["a",183],["j",144],["o",192],["r",216],["ENTER",3473]],"recall_words":["major"],"recall_word_response_times":[1920],"category_target":360,"category_target_string":"ENGINEER","trial_type":"free-recall","trial_index":133,"time_elapsed":1199490,"internal_node_id":"0.0-133.0","PROLIFIC ID":"66465c850d9a3e177f2649fa","data_path":"experiments/cat_target_short/cuefr.h5","stimuli_path":"experiments/cat_target_short/assets/cuefr_pool.txt","category_path":"experiments/cat_target_short/assets/cuefr_labels.txt","subjectId":0},{"load_time":1219210.7999999821,"recall_display_time":1219210.900000006,"category_cue":"","recall_responses":[["m",1774],["a",192],["j",72],["o",88],["r",136],["ENTER",152],["s",336],["a",112],["n",112],["d",111],["e",120],["r",152],["ENTER",104],["m",208],["a",128],["r",144],["o",240],["o",184],["n",160],["ENTER",464],["b",760],["o",64],["n",144],["e",96],["ENTER",264],["r",1248],["h",296],["o",144],["d",168],["e",129],["s",167],[" ",184],["i",192],["s",112],["l",144],["a",80],["n",72],["d",120],["ENTER",1096]],"recall_words":["major","sander","maroon","bone","rhodes island"],"recall_word_response_times":[1774,336,208,760,1248],"category_target":"","category_target_string":"","trial_type":"free-recall","trial_index":134,"time_elapsed":1229492,"internal_node_id":"0.0-134.0","PROLIFIC ID":"66465c850d9a3e177f2649fa","data_path":"experiments/cat_target_short/cuefr.h5","stimuli_path":"experiments/cat_target_short/assets/cuefr_pool.txt","category_path":"experiments/cat_target_short/assets/cuefr_labels.txt","subjectId":0},{"trial_type":"call-function","trial_index":135,"time_elapsed":1229492,"internal_node_id":"0.0-135.0","PROLIFIC ID":"66465c850d9a3e177f2649fa","data_path":"experiments/cat_target_short/cuefr.h5","stimuli_path":"experiments/cat_target_short/assets/cuefr_pool.txt","category_path":"experiments/cat_target_short/assets/cuefr_labels.txt","subjectId":0},{"view_history":[{"page_index":0,"viewing_time":4991}],"rt":4991,"trial_index":136,"trial_count":20,"message":"<p >When you're ready to proceed, press Next.</p>","trial_type":"instructions","time_elapsed":1234483,"internal_node_id":"0.0-136.0","PROLIFIC ID":"66465c850d9a3e177f2649fa","data_path":"experiments/cat_target_short/cuefr.h5","stimuli_path":"experiments/cat_target_short/assets/cuefr_pool.txt","category_path":"experiments/cat_target_short/assets/cuefr_labels.txt","subjectId":0},{"trial_type":"call-function","trial_index":137,"time_elapsed":1234484,"internal_node_id":"0.0-137.0","PROLIFIC ID":"66465c850d9a3e177f2649fa","data_path":"experiments/cat_target_short/cuefr.h5","stimuli_path":"experiments/cat_target_short/assets/cuefr_pool.txt","category_path":"experiments/cat_target_short/assets/cuefr_labels.txt","subjectId":0},{"load_time":1254202.900000006,"fixation_display_time":1254202.900000006,"trial_type":"fixation","trial_index":138,"time_elapsed":1235485,"internal_node_id":"0.0-138.0","PROLIFIC ID":"66465c850d9a3e177f2649fa","data_path":"experiments/cat_target_short/cuefr.h5","stimuli_path":"experiments/cat_target_short/assets/cuefr_pool.txt","category_path":"experiments/cat_target_short/assets/cuefr_labels.txt","subjectId":0},{"load_time":1255204.599999994,"word_display_times":[1255204.599999994,1258206.5,1261207.599999994,1264210.199999988,1267212.5,1270214.400000006],"word_list":["WATERFALL","LOVESEAT","WASHINGTON D.C.","PAPER","BRAZIL","POTATO PEELER"],"category_list":["GEOGRAPHY TERMS","FURNITURE","CITIES","READING MATERIALS","COUNTRIES","KITCHEN TOOLS"],"trial_type":"item-presentation","trial_index":139,"time_elapsed":1253496,"internal_node_id":"0.0-139.0","PROLIFIC ID":"66465c850d9a3e177f2649fa","data_path":"experiments/cat_target_short/cuefr.h5","stimuli_path":"experiments/cat_target_short/assets/cuefr_pool.txt","category_path":"experiments/cat_target_short/assets/cuefr_labels.txt","subjectId":0},{"load_time":1273220.2999999821,"recall_display_time":1273220.400000006,"category_cue":"","recall_responses":[["w",1071],["a",159],["s",144],["h",128],["i",256],["n",144],["g",104],["t",208],["o",65],["n",151],[" ",424],["d",200],["c",1088],["ENTER",624]],"recall_words":["washington dc"],"recall_word_response_times":[1071],"category_target":0,"category_target_string":"","trial_type":"free-recall","trial_index":140,"time_elapsed":1258268,"internal_node_id":"0.0-140.0","PROLIFIC ID":"66465c850d9a3e177f2649fa","data_path":"experiments/cat_target_short/cuefr.h5","stimuli_path":"experiments/cat_target_short/assets/cuefr_pool.txt","category_path":"experiments/cat_target_short/assets/cuefr_labels.txt","subjectId":0},{"load_time":1277988.199999988,"recall_display_time":1277988.199999988,"category_cue":"","recall_responses":[["p",1255],["a",96],["p",104],["e",112],["r",80],["ENTER",1168],["w",2256],["a",136],["t",56],["e",136],["r",103],["f",208],["a",104],["l",72],["l",144],["ENTER",224]],"recall_words":["paper","waterfall"],"recall_word_response_times":[1255,2256],"category_target":"","category_target_string":"","trial_type":"free-recall","trial_index":141,"time_elapsed":1288269,"internal_node_id":"0.0-141.0","PROLIFIC ID":"66465c850d9a3e177f2649fa","data_path":"experiments/cat_target_short/cuefr.h5","stimuli_path":"experiments/cat_target_short/assets/cuefr_pool.txt","category_path":"experiments/cat_target_short/assets/cuefr_labels.txt","subjectId":0},{"trial_type":"call-function","trial_index":142,"time_elapsed":1288269,"internal_node_id":"0.0-142.0","PROLIFIC ID":"66465c850d9a3e177f2649fa","data_path":"experiments/cat_target_short/cuefr.h5","stimuli_path":"experiments/cat_target_short/assets/cuefr_pool.txt","category_path":"experiments/cat_target_short/assets/cuefr_labels.txt","subjectId":0},{"view_history":[{"page_index":0,"viewing_time":2286}],"rt":2286,"trial_index":143,"trial_count":20,"message":"<p >You have completed the experiment. Thank you for your participation!</p>","trial_type":"instructions","time_elapsed":1290556,"internal_node_id":"0.0-143.0","PROLIFIC ID":"66465c850d9a3e177f2649fa","data_path":"experiments/cat_target_short/cuefr.h5","stimuli_path":"experiments/cat_target_short/assets/cuefr_pool.txt","category_path":"experiments/cat_target_short/assets/cuefr_labels.txt","subjectId":0},{"rt":4381,"stimulus":"You've completed the experiment! Your total performance bonus is $3.4375. Click \"SUBMIT\" or wait five seconds to complete the experiment and confirm your bonus. Make sure you proceed to the next page to ensure your bonus is recorded.","response":0,"bonus":3.4375,"trial_type":"html-button-response","trial_index":144,"time_elapsed":1294939,"internal_node_id":"0.0-144.0","PROLIFIC ID":"66465c850d9a3e177f2649fa","data_path":"experiments/cat_target_short/cuefr.h5","stimuli_path":"experiments/cat_target_short/assets/cuefr_pool.txt","category_path":"experiments/cat_target_short/assets/cuefr_labels.txt","subjectId":0}]
