[{"success":true,"rt":3274,"trial_type":"fullscreen","trial_index":0,"time_elapsed":4283,"internal_node_id":"0.0-0.0","PROLIFIC ID":"","data_path":"experiments/cat_target_short/cuefr.h5","stimuli_path":"experiments/cat_target_short/assets/cuefr_pool.txt","category_path":"experiments/cat_target_short/assets/cuefr_labels.txt","subjectId":0},{"view_history":[{"page_index":0,"viewing_time":11338},{"page_index":1,"viewing_time":3303},{"page_index":2,"viewing_time":6120},{"page_index":3,"viewing_time":9632},{"page_index":4,"viewing_time":30712},{"page_index":5,"viewing_time":10624},{"page_index":6,"viewing_time":10224},{"page_index":7,"viewing_time":7848},{"page_index":8,"viewing_time":2840},{"page_index":9,"viewing_time":1800},{"page_index":10,"viewing_time":2568},{"page_index":11,"viewing_time":1448},{"page_index":12,"viewing_time":1424},{"page_index":13,"viewing_time":896},{"page_index":14,"viewing_time":3792},{"page_index":15,"viewing_time":3800},{"page_index":16,"viewing_time":3328},{"page_index":17,"viewing_time":1200},{"page_index":18,"viewing_time":5680}],"rt":118578,"trial_type":"instructions","trial_index":1,"time_elapsed":122865,"internal_node_id":"0.0-1.0","PROLIFIC ID":"","data_path":"experiments/cat_target_short/cuefr.h5","stimuli_path":"experiments/cat_target_short/assets/cuefr_pool.txt","category_path":"experiments/cat_target_short/assets/cuefr_labels.txt","subjectId":0},{"view_history":[{"page_index":0,"viewing_time":72600}],"rt":72600,"trial_type":"instructions","trial_index":2,"time_elapsed":195467,"internal_node_id":"0.0-2.0","PROLIFIC ID":"","data_path":"experiments/cat_target_short/cuefr.h5","stimuli_path":"experiments/cat_target_short/assets/cuefr_pool.txt","category_path":"experiments/cat_target_short/assets/cuefr_labels.txt","subjectId":0},{"trial_type":"call-function","trial_index":3,"time_elapsed":195468,"internal_node_id":"0.0-3.0","PROLIFIC ID":"","data_path":"experiments/cat_target_short/cuefr.h5","stimuli_path":"experiments/cat_target_short/assets/cuefr_pool.txt","category_path":"experiments/cat_target_short/assets/cuefr_labels.txt","subjectId":0},{"trial_type":"call-function","trial_index":4,"time_elapsed":195468,"internal_node_id":"0.0-4.0","PROLIFIC ID":"","data_path":"experiments/cat_target_short/cuefr.h5","stimuli_path":"experiments/cat_target_short/assets/cuefr_pool.txt","category_path":"experiments/cat_target_short/assets/cuefr_labels.txt","subjectId":0},{"load_time":199505.59999847412,"fixation_display_time":199505.70000076294,"trial_type":"fixation","trial_index":5,"time_elapsed":196477,"internal_node_id":"0.0-5.0","PROLIFIC ID":"","data_path":"experiments/cat_target_short/cuefr.h5","stimuli_path":"experiments/cat_target_short/assets/cuefr_pool.txt","category_path":"experiments/cat_target_short/assets/cuefr_labels.txt","subjectId":0},{"load_time":200514.79999923706,"word_display_times":[200514.89999771118,203526.29999923706,206544.89999771118,209558.29999923706,212576.59999847412,215590.29999923706],"word_list":["KOOL AID","HOTEL","DUCK","SCOTLAND","CLARINET","BLENDER"],"category_list":["BEVERAGES","DWELLINGS","BIRDS","COUNTRIES","INSTRUMENTS","KITCHEN TOOLS"],"trial_type":"item-presentation","trial_index":6,"time_elapsed":214573,"internal_node_id":"0.0-6.0","PROLIFIC ID":"","data_path":"experiments/cat_target_short/cuefr.h5","stimuli_path":"experiments/cat_target_short/assets/cuefr_pool.txt","category_path":"experiments/cat_target_short/assets/cuefr_labels.txt","subjectId":0},{"load_time":218616,"recall_display_time":218616.20000076294,"category_cue":"COUNTRIES","recall_responses":[["s",2151],["c",264],["o",232],["t",224],["l",256],["a",104],["n",128],["d",232],["ENTER",896]],"recall_words":["scotland"],"recall_word_response_times":[2151],"category_target":162,"category_target_string":"SCOTLAND","trial_type":"free-recall","trial_index":7,"time_elapsed":219068,"internal_node_id":"0.0-7.0","PROLIFIC ID":"","data_path":"experiments/cat_target_short/cuefr.h5","stimuli_path":"experiments/cat_target_short/assets/cuefr_pool.txt","category_path":"experiments/cat_target_short/assets/cuefr_labels.txt","subjectId":0},{"load_time":223105.89999771118,"recall_display_time":223106.09999847412,"category_cue":"","recall_responses":[["c",2557],["l",112],["a",104],["r",144],["i",328],["n",136],["e",256],["t",160],["ENTER",864],["d",3904],["u",264],["c",184],["k",144],["ENTER",240],["b",2992],["l",192],["e",104],["n",136],["d",104],["e",192],["r",72],["ENTER",152],["h",13416],["o",160],["t",104],["e",144],["l",112],["ENTER",872]],"recall_words":["clarinet","duck","blender","hotel"],"recall_word_response_times":[2557,3904,2992,13416],"category_target":"","category_target_string":"","trial_type":"free-recall","trial_index":8,"time_elapsed":249074,"internal_node_id":"0.0-8.0","PROLIFIC ID":"","data_path":"experiments/cat_target_short/cuefr.h5","stimuli_path":"experiments/cat_target_short/assets/cuefr_pool.txt","category_path":"experiments/cat_target_short/assets/cuefr_labels.txt","subjectId":0},{"trial_type":"call-function","trial_index":9,"time_elapsed":249074,"internal_node_id":"0.0-9.0","PROLIFIC ID":"","data_path":"experiments/cat_target_short/cuefr.h5","stimuli_path":"experiments/cat_target_short/assets/cuefr_pool.txt","category_path":"experiments/cat_target_short/assets/cuefr_labels.txt","subjectId":0},{"view_history":[{"page_index":0,"viewing_time":13184}],"rt":13185,"trial_index":10,"trial_count":20,"message":"<p >You've completed the first trial! Please click the right arrow on your keyboard to proceed to the next trial.</p>","trial_type":"instructions","time_elapsed":262261,"internal_node_id":"0.0-10.0","PROLIFIC ID":"","data_path":"experiments/cat_target_short/cuefr.h5","stimuli_path":"experiments/cat_target_short/assets/cuefr_pool.txt","category_path":"experiments/cat_target_short/assets/cuefr_labels.txt","subjectId":0},{"trial_type":"call-function","trial_index":11,"time_elapsed":262261,"internal_node_id":"0.0-11.0","PROLIFIC ID":"","data_path":"experiments/cat_target_short/cuefr.h5","stimuli_path":"experiments/cat_target_short/assets/cuefr_pool.txt","category_path":"experiments/cat_target_short/assets/cuefr_labels.txt","subjectId":0},{"load_time":266296.29999923706,"fixation_display_time":266296.29999923706,"trial_type":"fixation","trial_index":12,"time_elapsed":263267,"internal_node_id":"0.0-12.0","PROLIFIC ID":"","data_path":"experiments/cat_target_short/cuefr.h5","stimuli_path":"experiments/cat_target_short/assets/cuefr_pool.txt","category_path":"experiments/cat_target_short/assets/cuefr_labels.txt","subjectId":0},{"load_time":267302.0999984741,"word_display_times":[267302.0999984741,270320.8999977112,273334.3999977112,276352.8999977112,279366.3999977112,282384.5999984741],"word_list":["TEXTBOOK","ELEVATOR","CLIFF","COLUMBINE","SOFA","STEAMSHIP"],"category_list":["READING MATERIALS","BUILDING PARTS","GEOGRAPHY TERMS","FLOWERS","FURNITURE","SHIPS"],"trial_type":"item-presentation","trial_index":13,"time_elapsed":281364,"internal_node_id":"0.0-13.0","PROLIFIC ID":"","data_path":"experiments/cat_target_short/cuefr.h5","stimuli_path":"experiments/cat_target_short/assets/cuefr_pool.txt","category_path":"experiments/cat_target_short/assets/cuefr_labels.txt","subjectId":0},{"load_time":285405.20000076294,"recall_display_time":285405.20000076294,"category_cue":"BUILDING PARTS","recall_responses":[["e",3851],["l",152],["e",72],["v",264],["a",112],["t",152],["o",104],["r",112],["ENTER",336]],"recall_words":["elevator"],"recall_word_response_times":[3851],"category_target":47,"category_target_string":"ELEVATOR","trial_type":"free-recall","trial_index":14,"time_elapsed":286526,"internal_node_id":"0.0-14.0","PROLIFIC ID":"","data_path":"experiments/cat_target_short/cuefr.h5","stimuli_path":"experiments/cat_target_short/assets/cuefr_pool.txt","category_path":"experiments/cat_target_short/assets/cuefr_labels.txt","subjectId":0},{"load_time":290561.0999984741,"recall_display_time":290561.20000076294,"category_cue":"","recall_responses":[["c",1734],["o",320],["l",192],["u",192],["m",184],["b",216],["i",112],["n",160],["e",80],["ENTER",344],["c",1456],["l",104],["i",144],["f",104],["f",152],["ENTER",184],["t",1112],["e",136],["x",288],["t",184],["b",176],["o",232],["o",200],["k",176],["ENTER",184],["s",4824],["t",192],["e",336],["a",120],["m",120],["b",1000],["o",96],["a",136],["t",96],["ENTER",1024],["s",5704],["o",176],["f",120],["a",104],["ENTER",696]],"recall_words":["columbine","cliff","textbook","steamboat","sofa"],"recall_word_response_times":[1734,1456,1112,4824,5704],"category_target":"","category_target_string":"","trial_type":"free-recall","trial_index":15,"time_elapsed":316534,"internal_node_id":"0.0-15.0","PROLIFIC ID":"","data_path":"experiments/cat_target_short/cuefr.h5","stimuli_path":"experiments/cat_target_short/assets/cuefr_pool.txt","category_path":"experiments/cat_target_short/assets/cuefr_labels.txt","subjectId":0},{"trial_type":"call-function","trial_index":16,"time_elapsed":316534,"internal_node_id":"0.0-16.0","PROLIFIC ID":"","data_path":"experiments/cat_target_short/cuefr.h5","stimuli_path":"experiments/cat_target_short/assets/cuefr_pool.txt","category_path":"experiments/cat_target_short/assets/cuefr_labels.txt","subjectId":0},{"view_history":[{"page_index":0,"viewing_time":7152}],"rt":7152,"trial_index":17,"trial_count":20,"message":"<p >When you're ready for the next trial, press Next.</p>","trial_type":"instructions","time_elapsed":323687,"internal_node_id":"0.0-17.0","PROLIFIC ID":"","data_path":"experiments/cat_target_short/cuefr.h5","stimuli_path":"experiments/cat_target_short/assets/cuefr_pool.txt","category_path":"experiments/cat_target_short/assets/cuefr_labels.txt","subjectId":0},{"trial_type":"call-function","trial_index":18,"time_elapsed":323687,"internal_node_id":"0.0-18.0","PROLIFIC ID":"","data_path":"experiments/cat_target_short/cuefr.h5","stimuli_path":"experiments/cat_target_short/assets/cuefr_pool.txt","category_path":"experiments/cat_target_short/assets/cuefr_labels.txt","subjectId":0},{"load_time":327719.8999977112,"fixation_display_time":327719.8999977112,"trial_type":"fixation","trial_index":19,"time_elapsed":324694,"internal_node_id":"0.0-19.0","PROLIFIC ID":"","data_path":"experiments/cat_target_short/cuefr.h5","stimuli_path":"experiments/cat_target_short/assets/cuefr_pool.txt","category_path":"experiments/cat_target_short/assets/cuefr_labels.txt","subjectId":0},{"load_time":328727.0999984741,"word_display_times":[328727.0999984741,331744.5999984741,334758.3999977112,337777,340788.5,343808.5999984741],"word_list":["SOFTBALL","CHICKEN","STOVE","SPANDEX","BANJO","PROFESSOR"],"category_list":["SPORTS","BIRDS","KITCHEN TOOLS","FABRICS","INSTRUMENTS","OCCUPATIONS"],"trial_type":"item-presentation","trial_index":20,"time_elapsed":342790,"internal_node_id":"0.0-20.0","PROLIFIC ID":"","data_path":"experiments/cat_target_short/cuefr.h5","stimuli_path":"experiments/cat_target_short/assets/cuefr_pool.txt","category_path":"experiments/cat_target_short/assets/cuefr_labels.txt","subjectId":0},{"load_time":346828.3999977112,"recall_display_time":346828.5,"category_cue":"FABRICS","recall_responses":[["s",2763],["p",248],["a",128],["n",104],["d",216],["e",240],["x",336],["ENTER",432]],"recall_words":["spandex"],"recall_word_response_times":[2763],"category_target":213,"category_target_string":"SPANDEX","trial_type":"free-recall","trial_index":21,"time_elapsed":347264,"internal_node_id":"0.0-21.0","PROLIFIC ID":"","data_path":"experiments/cat_target_short/cuefr.h5","stimuli_path":"experiments/cat_target_short/assets/cuefr_pool.txt","category_path":"experiments/cat_target_short/assets/cuefr_labels.txt","subjectId":0},{"load_time":351297.20000076294,"recall_display_time":351297.29999923706,"category_cue":"","recall_responses":[["b",1614],["a",144],["n",88],["j",264],["o",88],["ENTER",336],["s",1880],["t",176],["o",128],["v",168],["e",144],["ENTER",176],["c",544],["h",64],["i",120],["c",136],["k",88],["e",104],["n",88],["ENTER",280],["s",336],["o",248],["f",88],["t",216],["b",472],["a",152],["l",112],["l",152],["ENTER",184]],"recall_words":["banjo","stove","chicken","softball"],"recall_word_response_times":[1614,1880,544,336],"category_target":"","category_target_string":"","trial_type":"free-recall","trial_index":22,"time_elapsed":377271,"internal_node_id":"0.0-22.0","PROLIFIC ID":"","data_path":"experiments/cat_target_short/cuefr.h5","stimuli_path":"experiments/cat_target_short/assets/cuefr_pool.txt","category_path":"experiments/cat_target_short/assets/cuefr_labels.txt","subjectId":0},{"trial_type":"call-function","trial_index":23,"time_elapsed":377272,"internal_node_id":"0.0-23.0","PROLIFIC ID":"","data_path":"experiments/cat_target_short/cuefr.h5","stimuli_path":"experiments/cat_target_short/assets/cuefr_pool.txt","category_path":"experiments/cat_target_short/assets/cuefr_labels.txt","subjectId":0},{"view_history":[{"page_index":0,"viewing_time":3648}],"rt":3649,"trial_index":24,"trial_count":20,"message":"<p >When you're ready for the next trial, press Next.</p>","trial_type":"instructions","time_elapsed":380921,"internal_node_id":"0.0-24.0","PROLIFIC ID":"","data_path":"experiments/cat_target_short/cuefr.h5","stimuli_path":"experiments/cat_target_short/assets/cuefr_pool.txt","category_path":"experiments/cat_target_short/assets/cuefr_labels.txt","subjectId":0},{"trial_type":"call-function","trial_index":25,"time_elapsed":380921,"internal_node_id":"0.0-25.0","PROLIFIC ID":"","data_path":"experiments/cat_target_short/cuefr.h5","stimuli_path":"experiments/cat_target_short/assets/cuefr_pool.txt","category_path":"experiments/cat_target_short/assets/cuefr_labels.txt","subjectId":0},{"load_time":384952.20000076294,"fixation_display_time":384952.20000076294,"trial_type":"fixation","trial_index":26,"time_elapsed":381927,"internal_node_id":"0.0-26.0","PROLIFIC ID":"","data_path":"experiments/cat_target_short/cuefr.h5","stimuli_path":"experiments/cat_target_short/assets/cuefr_pool.txt","category_path":"experiments/cat_target_short/assets/cuefr_labels.txt","subjectId":0},{"load_time":385959,"word_display_times":[385959,388976.8999977112,391990,395008.5999984741,398016.8999977112,401030.29999923706],"word_list":["ROOM","VOLCANO","ENGLAND","ADOBE","SCREWDRIVER","WISCONSIN"],"category_list":["BUILDING PARTS","GEOGRAPHY TERMS","COUNTRIES","DWELLINGS","CARPENTRY TOOLS","STATES"],"trial_type":"item-presentation","trial_index":27,"time_elapsed":400016,"internal_node_id":"0.0-27.0","PROLIFIC ID":"","data_path":"experiments/cat_target_short/cuefr.h5","stimuli_path":"experiments/cat_target_short/assets/cuefr_pool.txt","category_path":"experiments/cat_target_short/assets/cuefr_labels.txt","subjectId":0},{"load_time":404052.20000076294,"recall_display_time":404052.29999923706,"category_cue":"","recall_responses":[["s",1747],["c",200],["r",208],["e",144],["w",208],["d",504],["r",232],["i",112],["v",144],["e",168],["r",96],["ENTER",360]],"recall_words":["screwdriver"],"recall_word_response_times":[1747],"category_target":0,"category_target_string":"","trial_type":"free-recall","trial_index":28,"time_elapsed":404145,"internal_node_id":"0.0-28.0","PROLIFIC ID":"","data_path":"experiments/cat_target_short/cuefr.h5","stimuli_path":"experiments/cat_target_short/assets/cuefr_pool.txt","category_path":"experiments/cat_target_short/assets/cuefr_labels.txt","subjectId":0},{"load_time":408177.0999984741,"recall_display_time":408177.20000076294,"category_cue":"","recall_responses":[["a",1142],["d",120],["o",104],["b",184],["e",104],["ENTER",232],["s",928],["c",176],["backspace",616],["backspace",176],["e",64],["n",128],["g",144],["l",104],["a",144],["n",120],["d",136],["ENTER",552],["w",2296],["i",160],["s",112],["t",112],["backspace",416],["c",112],["o",120],["n",96],["s",328],["i",80],["n",88],["ENTER",488],["r",5736],["o",120],["o",152],["m",136],["ENTER",216],["v",3048],["o",120],["l",176],["a",160],["backspace",336],["c",96],["a",72],["n",104],["o",176],["ENTER",320]],"recall_words":["adobe","england","wisconsin","room","volcano"],"recall_word_response_times":[1142,928,2296,5736,3048],"category_target":"","category_target_string":"","trial_type":"free-recall","trial_index":29,"time_elapsed":434153,"internal_node_id":"0.0-29.0","PROLIFIC ID":"","data_path":"experiments/cat_target_short/cuefr.h5","stimuli_path":"experiments/cat_target_short/assets/cuefr_pool.txt","category_path":"experiments/cat_target_short/assets/cuefr_labels.txt","subjectId":0},{"trial_type":"call-function","trial_index":30,"time_elapsed":434153,"internal_node_id":"0.0-30.0","PROLIFIC ID":"","data_path":"experiments/cat_target_short/cuefr.h5","stimuli_path":"experiments/cat_target_short/assets/cuefr_pool.txt","category_path":"experiments/cat_target_short/assets/cuefr_labels.txt","subjectId":0},{"view_history":[{"page_index":0,"viewing_time":4857}],"rt":4857,"trial_index":31,"trial_count":20,"message":"<p >When you're ready for the next trial, press Next.</p>","trial_type":"instructions","time_elapsed":439010,"internal_node_id":"0.0-31.0","PROLIFIC ID":"","data_path":"experiments/cat_target_short/cuefr.h5","stimuli_path":"experiments/cat_target_short/assets/cuefr_pool.txt","category_path":"experiments/cat_target_short/assets/cuefr_labels.txt","subjectId":0},{"trial_type":"call-function","trial_index":32,"time_elapsed":439011,"internal_node_id":"0.0-32.0","PROLIFIC ID":"","data_path":"experiments/cat_target_short/cuefr.h5","stimuli_path":"experiments/cat_target_short/assets/cuefr_pool.txt","category_path":"experiments/cat_target_short/assets/cuefr_labels.txt","subjectId":0},{"load_time":443040.0999984741,"fixation_display_time":443040.0999984741,"trial_type":"fixation","trial_index":33,"time_elapsed":440014,"internal_node_id":"0.0-33.0","PROLIFIC ID":"","data_path":"experiments/cat_target_short/cuefr.h5","stimuli_path":"experiments/cat_target_short/assets/cuefr_pool.txt","category_path":"experiments/cat_target_short/assets/cuefr_labels.txt","subjectId":0},{"load_time":444044.3999977112,"word_display_times":[444044.3999977112,447062.29999923706,450080.8999977112,453094.3999977112,456112.5999984741,459126.20000076294],"word_list":["CHIEF","NYLON","PONTOON","MOSQUITO","DEER","PAPRIKA"],"category_list":["MILITARY TITLES","FABRICS","SHIPS","INSECTS","FOUR-FOOTED ANIMALS","SEASONINGS"],"trial_type":"item-presentation","trial_index":34,"time_elapsed":458116,"internal_node_id":"0.0-34.0","PROLIFIC ID":"","data_path":"experiments/cat_target_short/cuefr.h5","stimuli_path":"experiments/cat_target_short/assets/cuefr_pool.txt","category_path":"experiments/cat_target_short/assets/cuefr_labels.txt","subjectId":0},{"load_time":462150.5,"recall_display_time":462150.5,"category_cue":"INSECTS","recall_responses":[["m",1681],["o",175],["s",184],["q",232],["u",176],["i",112],["t",232],["o",144],["ENTER",288]],"recall_words":["mosquito"],"recall_word_response_times":[1681],"category_target":322,"category_target_string":"MOSQUITO","trial_type":"free-recall","trial_index":35,"time_elapsed":461347,"internal_node_id":"0.0-35.0","PROLIFIC ID":"","data_path":"experiments/cat_target_short/cuefr.h5","stimuli_path":"experiments/cat_target_short/assets/cuefr_pool.txt","category_path":"experiments/cat_target_short/assets/cuefr_labels.txt","subjectId":0},{"load_time":465377.20000076294,"recall_display_time":465377.20000076294,"category_cue":"","recall_responses":[["d",1198],["e",208],["e",168],["r",112],["ENTER",216],["p",512],["a",128],["p",104],["r",216],["i",136],["k",176],["a",168],["ENTER",136],["p",5192],["o",184],["n",112],["t",288],["o",120],["o",168],["n",192],["ENTER",840],["b",9584],["y",216],["backspace",568],["backspace",184],["n",440],["y",232],["l",224],["o",160],["n",104],["ENTER",456]],"recall_words":["deer","paprika","pontoon","nylon"],"recall_word_response_times":[1198,512,5192,9584],"category_target":"","category_target_string":"","trial_type":"free-recall","trial_index":36,"time_elapsed":491355,"internal_node_id":"0.0-36.0","PROLIFIC ID":"","data_path":"experiments/cat_target_short/cuefr.h5","stimuli_path":"experiments/cat_target_short/assets/cuefr_pool.txt","category_path":"experiments/cat_target_short/assets/cuefr_labels.txt","subjectId":0},{"trial_type":"call-function","trial_index":37,"time_elapsed":491355,"internal_node_id":"0.0-37.0","PROLIFIC ID":"","data_path":"experiments/cat_target_short/cuefr.h5","stimuli_path":"experiments/cat_target_short/assets/cuefr_pool.txt","category_path":"experiments/cat_target_short/assets/cuefr_labels.txt","subjectId":0},{"view_history":[{"page_index":0,"viewing_time":2873}],"rt":2873,"trial_index":38,"trial_count":20,"message":"<p >When you're ready for the next trial, press Next.</p>","trial_type":"instructions","time_elapsed":494228,"internal_node_id":"0.0-38.0","PROLIFIC ID":"","data_path":"experiments/cat_target_short/cuefr.h5","stimuli_path":"experiments/cat_target_short/assets/cuefr_pool.txt","category_path":"experiments/cat_target_short/assets/cuefr_labels.txt","subjectId":0},{"trial_type":"call-function","trial_index":39,"time_elapsed":494228,"internal_node_id":"0.0-39.0","PROLIFIC ID":"","data_path":"experiments/cat_target_short/cuefr.h5","stimuli_path":"experiments/cat_target_short/assets/cuefr_pool.txt","category_path":"experiments/cat_target_short/assets/cuefr_labels.txt","subjectId":0},{"load_time":498256.0999984741,"fixation_display_time":498256.0999984741,"trial_type":"fixation","trial_index":40,"time_elapsed":495237,"internal_node_id":"0.0-40.0","PROLIFIC ID":"","data_path":"experiments/cat_target_short/cuefr.h5","stimuli_path":"experiments/cat_target_short/assets/cuefr_pool.txt","category_path":"experiments/cat_target_short/assets/cuefr_labels.txt","subjectId":0},{"load_time":499265.5999984741,"word_display_times":[499265.5999984741,502278.0999984741,505291.70000076294,508310.20000076294,511324.5999984741,514341.29999923706],"word_list":["TORSO","COD","BOWLING","AUSTRALIA","ATTIC","CABIN"],"category_list":["BODY PARTS","FISH","SPORTS","COUNTRIES","BUILDING PARTS","DWELLINGS"],"trial_type":"item-presentation","trial_index":41,"time_elapsed":513330,"internal_node_id":"0.0-41.0","PROLIFIC ID":"","data_path":"experiments/cat_target_short/cuefr.h5","stimuli_path":"experiments/cat_target_short/assets/cuefr_pool.txt","category_path":"experiments/cat_target_short/assets/cuefr_labels.txt","subjectId":0},{"load_time":517362.70000076294,"recall_display_time":517362.79999923706,"category_cue":"","recall_responses":[["t",1501],["o",128],["s",160],["backspace",528],["r",112],["s",120],["o",88],["ENTER",352]],"recall_words":["torso"],"recall_word_response_times":[1501],"category_target":0,"category_target_string":"","trial_type":"free-recall","trial_index":42,"time_elapsed":516325,"internal_node_id":"0.0-42.0","PROLIFIC ID":"","data_path":"experiments/cat_target_short/cuefr.h5","stimuli_path":"experiments/cat_target_short/assets/cuefr_pool.txt","category_path":"experiments/cat_target_short/assets/cuefr_labels.txt","subjectId":0},{"load_time":520353,"recall_display_time":520353.0999984741,"category_cue":"","recall_responses":[["c",686],["o",56],["d",200],["ENTER",200],["b",464],["o",144],["w",128],["l",168],["i",160],["n",88],["g",112],["ENTER",560],["a",880],["u",264],["t",208],["r",328],["a",184],["i",280],["l",440],["i",184],["a",72],["ENTER",344],["a",432],["t",232],["t",152],["a",408],["c",176],["k",96],["backspace",792],["backspace",224],["backspace",176],["i",208],["c",232],["k",656],["backspace",592],["c",136],["backspace",624],["backspace",672],["c",936],["l",80],["backspace",616],["k",368],["backspace",872],["backspace",200],["backspace",184],["a",904],["c",200],["l",88],["backspace",520],["k",264],["backspace",416],["k",1080],["backspace",872],["backspace",192],["backspace",176],["i",1328],["c",144],["c",200],["backspace",408],["backspace",176],["i",160],["c",128],["backspace",424],["backspace",192],["backspace",176],["backspace",280],["t",712],["a",240],["c",200],["k",168],["ENTER",1944]],"recall_words":["cod","bowling","autrailia","attack"],"recall_word_response_times":[686,464,880,432],"category_target":"","category_target_string":"","trial_type":"free-recall","trial_index":43,"time_elapsed":546332,"internal_node_id":"0.0-43.0","PROLIFIC ID":"","data_path":"experiments/cat_target_short/cuefr.h5","stimuli_path":"experiments/cat_target_short/assets/cuefr_pool.txt","category_path":"experiments/cat_target_short/assets/cuefr_labels.txt","subjectId":0},{"trial_type":"call-function","trial_index":44,"time_elapsed":546333,"internal_node_id":"0.0-44.0","PROLIFIC ID":"","data_path":"experiments/cat_target_short/cuefr.h5","stimuli_path":"experiments/cat_target_short/assets/cuefr_pool.txt","category_path":"experiments/cat_target_short/assets/cuefr_labels.txt","subjectId":0},{"view_history":[{"page_index":0,"viewing_time":3064}],"rt":3064,"trial_index":45,"trial_count":20,"message":"<p >When you're ready for the next trial, press Next.</p>","trial_type":"instructions","time_elapsed":549398,"internal_node_id":"0.0-45.0","PROLIFIC ID":"","data_path":"experiments/cat_target_short/cuefr.h5","stimuli_path":"experiments/cat_target_short/assets/cuefr_pool.txt","category_path":"experiments/cat_target_short/assets/cuefr_labels.txt","subjectId":0},{"trial_type":"call-function","trial_index":46,"time_elapsed":549398,"internal_node_id":"0.0-46.0","PROLIFIC ID":"","data_path":"experiments/cat_target_short/cuefr.h5","stimuli_path":"experiments/cat_target_short/assets/cuefr_pool.txt","category_path":"experiments/cat_target_short/assets/cuefr_labels.txt","subjectId":0},{"load_time":553423.8999977112,"fixation_display_time":553423.8999977112,"trial_type":"fixation","trial_index":47,"time_elapsed":550407,"internal_node_id":"0.0-47.0","PROLIFIC ID":"","data_path":"experiments/cat_target_short/cuefr.h5","stimuli_path":"experiments/cat_target_short/assets/cuefr_pool.txt","category_path":"experiments/cat_target_short/assets/cuefr_labels.txt","subjectId":0},{"load_time":554433.5,"word_display_times":[554433.5,557446.2999992371,560464.7999992371,563478.3999977112,566496.5999984741,569510.2999992371],"word_list":["VELVET","ROSE","COCKROACH","LEMON","SERGEANT","COFFEE"],"category_list":["FABRICS","FLOWERS","INSECTS","FRUIT","MILITARY TITLES","BEVERAGES"],"trial_type":"item-presentation","trial_index":48,"time_elapsed":568503,"internal_node_id":"0.0-48.0","PROLIFIC ID":"","data_path":"experiments/cat_target_short/cuefr.h5","stimuli_path":"experiments/cat_target_short/assets/cuefr_pool.txt","category_path":"experiments/cat_target_short/assets/cuefr_labels.txt","subjectId":0},{"load_time":572534.2999992371,"recall_display_time":572534.2999992371,"category_cue":"INSECTS","recall_responses":[["c",2209],["o",88],["c",168],["k",72],["r",424],["o",184],["a",184],["c",208],["h",72],["ENTER",400]],"recall_words":["cockroach"],"recall_word_response_times":[2209],"category_target":314,"category_target_string":"COCKROACH","trial_type":"free-recall","trial_index":49,"time_elapsed":572518,"internal_node_id":"0.0-49.0","PROLIFIC ID":"","data_path":"experiments/cat_target_short/cuefr.h5","stimuli_path":"experiments/cat_target_short/assets/cuefr_pool.txt","category_path":"experiments/cat_target_short/assets/cuefr_labels.txt","subjectId":0},{"load_time":576545.0999984741,"recall_display_time":576545.0999984741,"category_cue":"","recall_responses":[["v",1390],["e",280],["l",112],["v",320],["e",184],["t",160],["ENTER",304],["r",384],["o",112],["s",120],["e",64],["ENTER",392],["s",2336],["e",160],["r",104],["g",216],["e",296],["a",160],["n",136],["t",152],["ENTER",816],["c",2416],["o",112],["f",232],["f",168],["e",160],["e",184],["ENTER",496]],"recall_words":["velvet","rose","sergeant","coffee"],"recall_word_response_times":[1390,384,2336,2416],"category_target":"","category_target_string":"","trial_type":"free-recall","trial_index":50,"time_elapsed":602526,"internal_node_id":"0.0-50.0","PROLIFIC ID":"","data_path":"experiments/cat_target_short/cuefr.h5","stimuli_path":"experiments/cat_target_short/assets/cuefr_pool.txt","category_path":"experiments/cat_target_short/assets/cuefr_labels.txt","subjectId":0},{"trial_type":"call-function","trial_index":51,"time_elapsed":602526,"internal_node_id":"0.0-51.0","PROLIFIC ID":"","data_path":"experiments/cat_target_short/cuefr.h5","stimuli_path":"experiments/cat_target_short/assets/cuefr_pool.txt","category_path":"experiments/cat_target_short/assets/cuefr_labels.txt","subjectId":0},{"view_history":[{"page_index":0,"viewing_time":2713}],"rt":2713,"trial_index":52,"trial_count":20,"message":"<p >When you're ready for the next trial, press Next.</p>","trial_type":"instructions","time_elapsed":605239,"internal_node_id":"0.0-52.0","PROLIFIC ID":"","data_path":"experiments/cat_target_short/cuefr.h5","stimuli_path":"experiments/cat_target_short/assets/cuefr_pool.txt","category_path":"experiments/cat_target_short/assets/cuefr_labels.txt","subjectId":0},{"trial_type":"call-function","trial_index":53,"time_elapsed":605240,"internal_node_id":"0.0-53.0","PROLIFIC ID":"","data_path":"experiments/cat_target_short/cuefr.h5","stimuli_path":"experiments/cat_target_short/assets/cuefr_pool.txt","category_path":"experiments/cat_target_short/assets/cuefr_labels.txt","subjectId":0},{"load_time":609264.2000007629,"fixation_display_time":609264.2000007629,"trial_type":"fixation","trial_index":54,"time_elapsed":606249,"internal_node_id":"0.0-54.0","PROLIFIC ID":"","data_path":"experiments/cat_target_short/cuefr.h5","stimuli_path":"experiments/cat_target_short/assets/cuefr_pool.txt","category_path":"experiments/cat_target_short/assets/cuefr_labels.txt","subjectId":0},{"load_time":610273.5999984741,"word_display_times":[610273.5999984741,613286.2000007629,616304.8999977112,619318.2999992371,622336.5999984741,625350.2999992371],"word_list":["VINEGAR","GOLF","COPPER","SNAPPER","LOUISIANA","TEAL"],"category_list":["SEASONINGS","SPORTS","ELEMENTS","FISH","STATES","COLORS"],"trial_type":"item-presentation","trial_index":55,"time_elapsed":624345,"internal_node_id":"0.0-55.0","PROLIFIC ID":"","data_path":"experiments/cat_target_short/cuefr.h5","stimuli_path":"experiments/cat_target_short/assets/cuefr_pool.txt","category_path":"experiments/cat_target_short/assets/cuefr_labels.txt","subjectId":0},{"load_time":628375.2000007629,"recall_display_time":628375.2999992371,"category_cue":"SPORTS","recall_responses":[["g",2192],["o",96],["l",168],["f",112],["ENTER",192]],"recall_words":["golf"],"recall_word_response_times":[2192],"category_target":427,"category_target_string":"GOLF","trial_type":"free-recall","trial_index":56,"time_elapsed":627112,"internal_node_id":"0.0-56.0","PROLIFIC ID":"","data_path":"experiments/cat_target_short/cuefr.h5","stimuli_path":"experiments/cat_target_short/assets/cuefr_pool.txt","category_path":"experiments/cat_target_short/assets/cuefr_labels.txt","subjectId":0},{"load_time":631137.0999984741,"recall_display_time":631137.2000007629,"category_cue":"","recall_responses":[["v",1270],["i",184],["n",360],["e",152],["g",192],["a",112],["r",176],["ENTER",224],["s",4784],["n",184],["a",96],["p",136],["p",152],["e",120],["r",88],["ENTER",160],["t",1328],["e",120],["a",128],["l",160],["ENTER",336],["l",8816],["e",224],["m",304],["o",72],["n",320],["ENTER",736]],"recall_words":["vinegar","snapper","teal","lemon"],"recall_word_response_times":[1270,4784,1328,8816],"category_target":"","category_target_string":"","trial_type":"free-recall","trial_index":57,"time_elapsed":657120,"internal_node_id":"0.0-57.0","PROLIFIC ID":"","data_path":"experiments/cat_target_short/cuefr.h5","stimuli_path":"experiments/cat_target_short/assets/cuefr_pool.txt","category_path":"experiments/cat_target_short/assets/cuefr_labels.txt","subjectId":0},{"trial_type":"call-function","trial_index":58,"time_elapsed":657120,"internal_node_id":"0.0-58.0","PROLIFIC ID":"","data_path":"experiments/cat_target_short/cuefr.h5","stimuli_path":"experiments/cat_target_short/assets/cuefr_pool.txt","category_path":"experiments/cat_target_short/assets/cuefr_labels.txt","subjectId":0},{"view_history":[{"page_index":0,"viewing_time":4113}],"rt":4113,"trial_index":59,"trial_count":20,"message":"<p >When you're ready for the next trial, press Next.</p>","trial_type":"instructions","time_elapsed":661233,"internal_node_id":"0.0-59.0","PROLIFIC ID":"","data_path":"experiments/cat_target_short/cuefr.h5","stimuli_path":"experiments/cat_target_short/assets/cuefr_pool.txt","category_path":"experiments/cat_target_short/assets/cuefr_labels.txt","subjectId":0},{"trial_type":"call-function","trial_index":60,"time_elapsed":661233,"internal_node_id":"0.0-60.0","PROLIFIC ID":"","data_path":"experiments/cat_target_short/cuefr.h5","stimuli_path":"experiments/cat_target_short/assets/cuefr_pool.txt","category_path":"experiments/cat_target_short/assets/cuefr_labels.txt","subjectId":0},{"load_time":665256.2000007629,"fixation_display_time":665256.2000007629,"trial_type":"fixation","trial_index":61,"time_elapsed":662240,"internal_node_id":"0.0-61.0","PROLIFIC ID":"","data_path":"experiments/cat_target_short/cuefr.h5","stimuli_path":"experiments/cat_target_short/assets/cuefr_pool.txt","category_path":"experiments/cat_target_short/assets/cuefr_labels.txt","subjectId":0},{"load_time":666262.8999977112,"word_display_times":[666262.8999977112,669280.7999992371,672294.2999992371,675312.5999984741,678326.3999977112,681344.5999984741],"word_list":["HAT","DENIM","CENTIPEDE","ROLLING PIN","TROMBONE","NEW ORLEANS"],"category_list":["CLOTHES","FABRICS","INSECTS","KITCHEN TOOLS","INSTRUMENTS","CITIES"],"trial_type":"item-presentation","trial_index":62,"time_elapsed":680336,"internal_node_id":"0.0-62.0","PROLIFIC ID":"","data_path":"experiments/cat_target_short/cuefr.h5","stimuli_path":"experiments/cat_target_short/assets/cuefr_pool.txt","category_path":"experiments/cat_target_short/assets/cuefr_labels.txt","subjectId":0},{"load_time":684364.0999984741,"recall_display_time":684364.2000007629,"category_cue":"INSTRUMENTS","recall_responses":[["t",1484],["o",152],["m",120],["b",264],["o",176],["n",80],["e",120],["backspace",512],["backspace",224],["backspace",160],["backspace",176],["backspace",176],["backspace",160],["r",192],["o",112],["m",576],["b",688],["o",184],["n",88],["e",160],["ENTER",576]],"recall_words":["trombone"],"recall_word_response_times":[1484],"category_target":334,"category_target_string":"TROMBONE","trial_type":"free-recall","trial_index":63,"time_elapsed":686722,"internal_node_id":"0.0-63.0","PROLIFIC ID":"","data_path":"experiments/cat_target_short/cuefr.h5","stimuli_path":"experiments/cat_target_short/assets/cuefr_pool.txt","category_path":"experiments/cat_target_short/assets/cuefr_labels.txt","subjectId":0},{"load_time":690745,"recall_display_time":690745.0999984741,"category_cue":"","recall_responses":[["n",894],["e",128],["w",144],[" ",176],["o",176],["r",80],["l",512],["e",136],["a",112],["n",248],["s",176],["ENTER",472],["h",856],["a",88],["t",128],["ENTER",152],["d",304],["e",176],["n",360],["i",184],["m",168],["ENTER",344],["r",456],["o",112],["l",184],["l",144],["i",152],["n",88],["g",112],[" ",176],["backspace",680],["p",392],["i",272],["n",192],["ENTER",648],["c",760],["e",160],["n",128],["t",216],["i",176],["p",176],["e",528],["a",192],["d",168],["backspace",736],["backspace",184],["d",48],["e",200],["ENTER",736]],"recall_words":["new orleans","hat","denim","rollingpin","centipede"],"recall_word_response_times":[894,856,304,456,760],"category_target":"","category_target_string":"","trial_type":"free-recall","trial_index":64,"time_elapsed":716744,"internal_node_id":"0.0-64.0","PROLIFIC ID":"","data_path":"experiments/cat_target_short/cuefr.h5","stimuli_path":"experiments/cat_target_short/assets/cuefr_pool.txt","category_path":"experiments/cat_target_short/assets/cuefr_labels.txt","subjectId":0},{"trial_type":"call-function","trial_index":65,"time_elapsed":716744,"internal_node_id":"0.0-65.0","PROLIFIC ID":"","data_path":"experiments/cat_target_short/cuefr.h5","stimuli_path":"experiments/cat_target_short/assets/cuefr_pool.txt","category_path":"experiments/cat_target_short/assets/cuefr_labels.txt","subjectId":0},{"view_history":[{"page_index":0,"viewing_time":2158}],"rt":2158,"trial_index":66,"trial_count":20,"message":"<p >When you're ready for the next trial, press Next.</p>","trial_type":"instructions","time_elapsed":718903,"internal_node_id":"0.0-66.0","PROLIFIC ID":"","data_path":"experiments/cat_target_short/cuefr.h5","stimuli_path":"experiments/cat_target_short/assets/cuefr_pool.txt","category_path":"experiments/cat_target_short/assets/cuefr_labels.txt","subjectId":0},{"trial_type":"call-function","trial_index":67,"time_elapsed":718903,"internal_node_id":"0.0-67.0","PROLIFIC ID":"","data_path":"experiments/cat_target_short/cuefr.h5","stimuli_path":"experiments/cat_target_short/assets/cuefr_pool.txt","category_path":"experiments/cat_target_short/assets/cuefr_labels.txt","subjectId":0},{"load_time":722912.2000007629,"fixation_display_time":722912.2000007629,"trial_type":"fixation","trial_index":68,"time_elapsed":719913,"internal_node_id":"0.0-68.0","PROLIFIC ID":"","data_path":"experiments/cat_target_short/cuefr.h5","stimuli_path":"experiments/cat_target_short/assets/cuefr_pool.txt","category_path":"experiments/cat_target_short/assets/cuefr_labels.txt","subjectId":0},{"load_time":723921.5,"word_display_times":[723921.5,726934.0999984741,729952.5999984741,732966.2999992371,735984.5999984741,738998.2999992371],"word_list":["AUDI","HALIBUT","SODIUM","TSUNAMI","STAR FRUIT","CONDOMINIUM"],"category_list":["CAR MODELS","FISH","ELEMENTS","WEATHER TERMS","FRUIT","DWELLINGS"],"trial_type":"item-presentation","trial_index":69,"time_elapsed":738012,"internal_node_id":"0.0-69.0","PROLIFIC ID":"","data_path":"experiments/cat_target_short/cuefr.h5","stimuli_path":"experiments/cat_target_short/assets/cuefr_pool.txt","category_path":"experiments/cat_target_short/assets/cuefr_labels.txt","subjectId":0},{"load_time":742022.3999977112,"recall_display_time":742022.5,"category_cue":"","recall_responses":[["s",1993],["t",216],["a",104],["r",248],["g",416],["r",240],["backspace",384],["backspace",200],["f",40],["r",160],["u",104],["i",216],["t",184],["ENTER",1720]],"recall_words":["starfruit"],"recall_word_response_times":[1993],"category_target":0,"category_target_string":"","trial_type":"free-recall","trial_index":70,"time_elapsed":744243,"internal_node_id":"0.0-70.0","PROLIFIC ID":"","data_path":"experiments/cat_target_short/cuefr.h5","stimuli_path":"experiments/cat_target_short/assets/cuefr_pool.txt","category_path":"experiments/cat_target_short/assets/cuefr_labels.txt","subjectId":0},{"load_time":748249.0999984741,"recall_display_time":748249.2000007629,"category_cue":"","recall_responses":[["h",1142],["a",160],["l",112],["i",240],["b",192],["u",208],["t",112],["ENTER",1392],["a",2128],["u",200],["d",160],["i",144],["ENTER",456],["s",2112],["o",248],["d",144],["i",96],["u",256],["m",248],["ENTER",720]],"recall_words":["halibut","audi","sodium"],"recall_word_response_times":[1142,2128,2112],"category_target":"","category_target_string":"","trial_type":"free-recall","trial_index":71,"time_elapsed":774254,"internal_node_id":"0.0-71.0","PROLIFIC ID":"","data_path":"experiments/cat_target_short/cuefr.h5","stimuli_path":"experiments/cat_target_short/assets/cuefr_pool.txt","category_path":"experiments/cat_target_short/assets/cuefr_labels.txt","subjectId":0},{"trial_type":"call-function","trial_index":72,"time_elapsed":774255,"internal_node_id":"0.0-72.0","PROLIFIC ID":"","data_path":"experiments/cat_target_short/cuefr.h5","stimuli_path":"experiments/cat_target_short/assets/cuefr_pool.txt","category_path":"experiments/cat_target_short/assets/cuefr_labels.txt","subjectId":0},{"view_history":[{"page_index":0,"viewing_time":2326}],"rt":2326,"trial_index":73,"trial_count":20,"message":"<p >When you're ready for the next trial, press Next.</p>","trial_type":"instructions","time_elapsed":776581,"internal_node_id":"0.0-73.0","PROLIFIC ID":"","data_path":"experiments/cat_target_short/cuefr.h5","stimuli_path":"experiments/cat_target_short/assets/cuefr_pool.txt","category_path":"experiments/cat_target_short/assets/cuefr_labels.txt","subjectId":0},{"trial_type":"call-function","trial_index":74,"time_elapsed":776581,"internal_node_id":"0.0-74.0","PROLIFIC ID":"","data_path":"experiments/cat_target_short/cuefr.h5","stimuli_path":"experiments/cat_target_short/assets/cuefr_pool.txt","category_path":"experiments/cat_target_short/assets/cuefr_labels.txt","subjectId":0},{"load_time":780584,"fixation_display_time":780584,"trial_type":"fixation","trial_index":75,"time_elapsed":777587,"internal_node_id":"0.0-75.0","PROLIFIC ID":"","data_path":"experiments/cat_target_short/cuefr.h5","stimuli_path":"experiments/cat_target_short/assets/cuefr_pool.txt","category_path":"experiments/cat_target_short/assets/cuefr_labels.txt","subjectId":0},{"load_time":781589.8999977112,"word_display_times":[781589.8999977112,784608.8999977112,787622.3999977112,790640.7999992371,793654.3999977112,796672.5999984741],"word_list":["VALLEY","TOASTER","STUDENT","SCREW","SCHOONER","IDAHO"],"category_list":["GEOGRAPHY TERMS","KITCHEN TOOLS","OCCUPATIONS","CARPENTRY TOOLS","SHIPS","STATES"],"trial_type":"item-presentation","trial_index":76,"time_elapsed":795684,"internal_node_id":"0.0-76.0","PROLIFIC ID":"","data_path":"experiments/cat_target_short/cuefr.h5","stimuli_path":"experiments/cat_target_short/assets/cuefr_pool.txt","category_path":"experiments/cat_target_short/assets/cuefr_labels.txt","subjectId":0},{"load_time":799692,"recall_display_time":799692,"category_cue":"OCCUPATIONS","recall_responses":[["s",2772],["t",328],["u",136],["d",128],["e",184],["n",96],["t",128],["ENTER",336]],"recall_words":["student"],"recall_word_response_times":[2772],"category_target":369,"category_target_string":"STUDENT","trial_type":"free-recall","trial_index":77,"time_elapsed":799798,"internal_node_id":"0.0-77.0","PROLIFIC ID":"","data_path":"experiments/cat_target_short/cuefr.h5","stimuli_path":"experiments/cat_target_short/assets/cuefr_pool.txt","category_path":"experiments/cat_target_short/assets/cuefr_labels.txt","subjectId":0},{"load_time":803801.0999984741,"recall_display_time":803801.0999984741,"category_cue":"","recall_responses":[["s",398],["c",344],["h",88],["o",176],["o",232],["n",352],["e",176],["r",128],["backspace",4336],["backspace",184],["backspace",160],["backspace",184],["backspace",168],["backspace",184],["backspace",288],["h",400],["c",320],["o",104],["o",208],["n",184],["e",144],["r",80],["ENTER",2408],["t",1952],["o",136],["a",112],["s",208],["t",136],["e",184],["r",64],["ENTER",808],["v",1056],["a",152],["l",120],["l",152],["e",104],["y",160],["ENTER",1008],["i",10216],["d",136],["a",168],["h",240],["o",128]],"recall_words":["shcooner","toaster","valley","idaho"],"recall_word_response_times":[398,1952,1056,10216,0],"category_target":"","category_target_string":"","trial_type":"free-recall","trial_index":78,"time_elapsed":829808,"internal_node_id":"0.0-78.0","PROLIFIC ID":"","data_path":"experiments/cat_target_short/cuefr.h5","stimuli_path":"experiments/cat_target_short/assets/cuefr_pool.txt","category_path":"experiments/cat_target_short/assets/cuefr_labels.txt","subjectId":0},{"trial_type":"call-function","trial_index":79,"time_elapsed":829808,"internal_node_id":"0.0-79.0","PROLIFIC ID":"","data_path":"experiments/cat_target_short/cuefr.h5","stimuli_path":"experiments/cat_target_short/assets/cuefr_pool.txt","category_path":"experiments/cat_target_short/assets/cuefr_labels.txt","subjectId":0},{"view_history":[{"page_index":0,"viewing_time":2654}],"rt":2654,"trial_index":80,"trial_count":20,"message":"<p >When you're ready for the next trial, press Next.</p>","trial_type":"instructions","time_elapsed":832463,"internal_node_id":"0.0-80.0","PROLIFIC ID":"","data_path":"experiments/cat_target_short/cuefr.h5","stimuli_path":"experiments/cat_target_short/assets/cuefr_pool.txt","category_path":"experiments/cat_target_short/assets/cuefr_labels.txt","subjectId":0},{"trial_type":"call-function","trial_index":81,"time_elapsed":832463,"internal_node_id":"0.0-81.0","PROLIFIC ID":"","data_path":"experiments/cat_target_short/cuefr.h5","stimuli_path":"experiments/cat_target_short/assets/cuefr_pool.txt","category_path":"experiments/cat_target_short/assets/cuefr_labels.txt","subjectId":0},{"load_time":836463.7000007629,"fixation_display_time":836463.7000007629,"trial_type":"fixation","trial_index":82,"time_elapsed":833472,"internal_node_id":"0.0-82.0","PROLIFIC ID":"","data_path":"experiments/cat_target_short/cuefr.h5","stimuli_path":"experiments/cat_target_short/assets/cuefr_pool.txt","category_path":"experiments/cat_target_short/assets/cuefr_labels.txt","subjectId":0},{"load_time":837473.3999977112,"word_display_times":[837473.3999977112,840486.2000007629,843499.7000007629,846518.2999992371,849537.2000007629,852550.3999977112],"word_list":["GATORADE","LAVENDER","MERCURY","MITSUBISHI","WRIST","CAPTAIN"],"category_list":["BEVERAGES","COLORS","ELEMENTS","CAR MODELS","BODY PARTS","MILITARY TITLES"],"trial_type":"item-presentation","trial_index":83,"time_elapsed":851568,"internal_node_id":"0.0-83.0","PROLIFIC ID":"","data_path":"experiments/cat_target_short/cuefr.h5","stimuli_path":"experiments/cat_target_short/assets/cuefr_pool.txt","category_path":"experiments/cat_target_short/assets/cuefr_labels.txt","subjectId":0},{"load_time":855574.3999977112,"recall_display_time":855574.3999977112,"category_cue":"COLORS","recall_responses":[["l",4049],["a",104],["v",168],["e",176],["n",120],["d",160],["e",176],["r",80],["ENTER",696]],"recall_words":["lavender"],"recall_word_response_times":[4049],"category_target":135,"category_target_string":"LAVENDER","trial_type":"free-recall","trial_index":84,"time_elapsed":857303,"internal_node_id":"0.0-84.0","PROLIFIC ID":"","data_path":"experiments/cat_target_short/cuefr.h5","stimuli_path":"experiments/cat_target_short/assets/cuefr_pool.txt","category_path":"experiments/cat_target_short/assets/cuefr_labels.txt","subjectId":0},{"load_time":861304.7999992371,"recall_display_time":861304.7999992371,"category_cue":"","recall_responses":[["m",1007],["i",224],["t",144],["s",504],["i",360],["backspace",640],["u",640],["b",320],["i",168],["s",208],["h",88],["i",152],["ENTER",568],["w",448],["e",208],["backspace",416],["r",72],["i",304],["s",232],["t",136],["ENTER",1056],["g",17840],["a",168],["r",120],["o",160],["backspace",304],["backspace",152],["t",56],["o",128],["r",120],["a",176],["e",256],["backspace",336],["d",72],["e",152],["ENTER",120]],"recall_words":["mitsubishi","wrist","gatorade"],"recall_word_response_times":[1007,448,17840],"category_target":"","category_target_string":"","trial_type":"free-recall","trial_index":85,"time_elapsed":887314,"internal_node_id":"0.0-85.0","PROLIFIC ID":"","data_path":"experiments/cat_target_short/cuefr.h5","stimuli_path":"experiments/cat_target_short/assets/cuefr_pool.txt","category_path":"experiments/cat_target_short/assets/cuefr_labels.txt","subjectId":0},{"trial_type":"call-function","trial_index":86,"time_elapsed":887314,"internal_node_id":"0.0-86.0","PROLIFIC ID":"","data_path":"experiments/cat_target_short/cuefr.h5","stimuli_path":"experiments/cat_target_short/assets/cuefr_pool.txt","category_path":"experiments/cat_target_short/assets/cuefr_labels.txt","subjectId":0},{"view_history":[{"page_index":0,"viewing_time":4942}],"rt":4942,"trial_index":87,"trial_count":20,"message":"<p >When you're ready for the next trial, press Next.</p>","trial_type":"instructions","time_elapsed":892256,"internal_node_id":"0.0-87.0","PROLIFIC ID":"","data_path":"experiments/cat_target_short/cuefr.h5","stimuli_path":"experiments/cat_target_short/assets/cuefr_pool.txt","category_path":"experiments/cat_target_short/assets/cuefr_labels.txt","subjectId":0},{"trial_type":"call-function","trial_index":88,"time_elapsed":892257,"internal_node_id":"0.0-88.0","PROLIFIC ID":"","data_path":"experiments/cat_target_short/cuefr.h5","stimuli_path":"experiments/cat_target_short/assets/cuefr_pool.txt","category_path":"experiments/cat_target_short/assets/cuefr_labels.txt","subjectId":0},{"load_time":896255.7999992371,"fixation_display_time":896255.7999992371,"trial_type":"fixation","trial_index":89,"time_elapsed":893266,"internal_node_id":"0.0-89.0","PROLIFIC ID":"","data_path":"experiments/cat_target_short/cuefr.h5","stimuli_path":"experiments/cat_target_short/assets/cuefr_pool.txt","category_path":"experiments/cat_target_short/assets/cuefr_labels.txt","subjectId":0},{"load_time":897265.3999977112,"word_display_times":[897265.3999977112,900278.2999992371,903296.2000007629,906310.2999992371,909328.5999984741,912342.3999977112],"word_list":["LACROSSE","CARNATION","COFFEE TABLE","POT","EUCALYPTUS","LINEN"],"category_list":["SPORTS","FLOWERS","FURNITURE","KITCHEN TOOLS","TREES","FABRICS"],"trial_type":"item-presentation","trial_index":90,"time_elapsed":911357,"internal_node_id":"0.0-90.0","PROLIFIC ID":"","data_path":"experiments/cat_target_short/cuefr.h5","stimuli_path":"experiments/cat_target_short/assets/cuefr_pool.txt","category_path":"experiments/cat_target_short/assets/cuefr_labels.txt","subjectId":0},{"load_time":915360.8999977112,"recall_display_time":915361,"category_cue":"","recall_responses":[["p",1903],["i",144],["backspace",456],["o",528],["t",144],["ENTER",488]],"recall_words":["pot"],"recall_word_response_times":[1903],"category_target":0,"category_target_string":"","trial_type":"free-recall","trial_index":91,"time_elapsed":915025,"internal_node_id":"0.0-91.0","PROLIFIC ID":"","data_path":"experiments/cat_target_short/cuefr.h5","stimuli_path":"experiments/cat_target_short/assets/cuefr_pool.txt","category_path":"experiments/cat_target_short/assets/cuefr_labels.txt","subjectId":0},{"load_time":919024.8999977112,"recall_display_time":919024.8999977112,"category_cue":"","recall_responses":[["l",1255],["a",72],["c",224],["r",232],["o",136],["s",120],["s",216],["e",216],["ENTER",368],["c",480],["a",88],["r",216],["n",192],["a",128],["t",112],["i",136],["o",96],["n",80],["ENTER",424],["c",304],["o",144],["f",272],["f",160],["e",144],["e",232],["t",584],["a",144],["b",312],["l",168],["e",72],["ENTER",736],["e",4952],["u",112],["c",232],["a",56],["l",280],["y",256],["p",376],["t",376],["u",752],["s",104],["ENTER",688]],"recall_words":["lacrosse","carnation","coffeetable","eucalyptus"],"recall_word_response_times":[1255,480,304,4952],"category_target":"","category_target_string":"","trial_type":"free-recall","trial_index":92,"time_elapsed":945033,"internal_node_id":"0.0-92.0","PROLIFIC ID":"","data_path":"experiments/cat_target_short/cuefr.h5","stimuli_path":"experiments/cat_target_short/assets/cuefr_pool.txt","category_path":"experiments/cat_target_short/assets/cuefr_labels.txt","subjectId":0},{"trial_type":"call-function","trial_index":93,"time_elapsed":945033,"internal_node_id":"0.0-93.0","PROLIFIC ID":"","data_path":"experiments/cat_target_short/cuefr.h5","stimuli_path":"experiments/cat_target_short/assets/cuefr_pool.txt","category_path":"experiments/cat_target_short/assets/cuefr_labels.txt","subjectId":0},{"view_history":[{"page_index":0,"viewing_time":2297}],"rt":2297,"trial_index":94,"trial_count":20,"message":"<p >When you're ready for the next trial, press Next.</p>","trial_type":"instructions","time_elapsed":947330,"internal_node_id":"0.0-94.0","PROLIFIC ID":"","data_path":"experiments/cat_target_short/cuefr.h5","stimuli_path":"experiments/cat_target_short/assets/cuefr_pool.txt","category_path":"experiments/cat_target_short/assets/cuefr_labels.txt","subjectId":0},{"trial_type":"call-function","trial_index":95,"time_elapsed":947330,"internal_node_id":"0.0-95.0","PROLIFIC ID":"","data_path":"experiments/cat_target_short/cuefr.h5","stimuli_path":"experiments/cat_target_short/assets/cuefr_pool.txt","category_path":"experiments/cat_target_short/assets/cuefr_labels.txt","subjectId":0},{"load_time":951328,"fixation_display_time":951328,"trial_type":"fixation","trial_index":96,"time_elapsed":948339,"internal_node_id":"0.0-96.0","PROLIFIC ID":"","data_path":"experiments/cat_target_short/cuefr.h5","stimuli_path":"experiments/cat_target_short/assets/cuefr_pool.txt","category_path":"experiments/cat_target_short/assets/cuefr_labels.txt","subjectId":0},{"load_time":952337.3999977112,"word_display_times":[952337.3999977112,955350.2999992371,958368.5999984741,961382.3999977112,964400.7000007629,967414.2000007629],"word_list":["MISSOURI","PUNCH","PIRANHA","TIGER","BULLETIN","PICCOLO"],"category_list":["STATES","BEVERAGES","FISH","FOUR-FOOTED ANIMALS","READING MATERIALS","INSTRUMENTS"],"trial_type":"item-presentation","trial_index":97,"time_elapsed":966436,"internal_node_id":"0.0-97.0","PROLIFIC ID":"","data_path":"experiments/cat_target_short/cuefr.h5","stimuli_path":"experiments/cat_target_short/assets/cuefr_pool.txt","category_path":"experiments/cat_target_short/assets/cuefr_labels.txt","subjectId":0},{"load_time":970438.3999977112,"recall_display_time":970438.5,"category_cue":"","recall_responses":[["p",1961],["i",456],["c",144],["c",200],["o",104],["l",224],["o",176],["ENTER",1640]],"recall_words":["piccolo"],"recall_word_response_times":[1961],"category_target":0,"category_target_string":"","trial_type":"free-recall","trial_index":98,"time_elapsed":971347,"internal_node_id":"0.0-98.0","PROLIFIC ID":"","data_path":"experiments/cat_target_short/cuefr.h5","stimuli_path":"experiments/cat_target_short/assets/cuefr_pool.txt","category_path":"experiments/cat_target_short/assets/cuefr_labels.txt","subjectId":0},{"load_time":975345,"recall_display_time":975345.0999984741,"category_cue":"","recall_responses":[["p",1046],["a",160],["r",160],["h",1448],["a",160],["n",216],["a",152],["ENTER",1616],["m",784],["i",184],["s",104],["s",160],["o",248],["u",160],["i",328],["r",192],["backspace",256],["backspace",160],["r",112],["i",752],["ENTER",248],["p",552],["u",192],["n",224],["c",120],["h",112],["ENTER",1056],["t",16800],["i",112],["g",160],["e",112],["r",136],["ENTER",136]],"recall_words":["parhana","missouri","punch","tiger"],"recall_word_response_times":[1046,784,552,16800],"category_target":"","category_target_string":"","trial_type":"free-recall","trial_index":99,"time_elapsed":1001355,"internal_node_id":"0.0-99.0","PROLIFIC ID":"","data_path":"experiments/cat_target_short/cuefr.h5","stimuli_path":"experiments/cat_target_short/assets/cuefr_pool.txt","category_path":"experiments/cat_target_short/assets/cuefr_labels.txt","subjectId":0},{"trial_type":"call-function","trial_index":100,"time_elapsed":1001355,"internal_node_id":"0.0-100.0","PROLIFIC ID":"","data_path":"experiments/cat_target_short/cuefr.h5","stimuli_path":"experiments/cat_target_short/assets/cuefr_pool.txt","category_path":"experiments/cat_target_short/assets/cuefr_labels.txt","subjectId":0},{"view_history":[{"page_index":0,"viewing_time":2568}],"rt":2569,"trial_index":101,"trial_count":20,"message":"<p >When you're ready for the next trial, press Next.</p>","trial_type":"instructions","time_elapsed":1003924,"internal_node_id":"0.0-101.0","PROLIFIC ID":"","data_path":"experiments/cat_target_short/cuefr.h5","stimuli_path":"experiments/cat_target_short/assets/cuefr_pool.txt","category_path":"experiments/cat_target_short/assets/cuefr_labels.txt","subjectId":0},{"trial_type":"call-function","trial_index":102,"time_elapsed":1003924,"internal_node_id":"0.0-102.0","PROLIFIC ID":"","data_path":"experiments/cat_target_short/cuefr.h5","stimuli_path":"experiments/cat_target_short/assets/cuefr_pool.txt","category_path":"experiments/cat_target_short/assets/cuefr_labels.txt","subjectId":0},{"load_time":1007919.7999992371,"fixation_display_time":1007919.7999992371,"trial_type":"fixation","trial_index":103,"time_elapsed":1004933,"internal_node_id":"0.0-103.0","PROLIFIC ID":"","data_path":"experiments/cat_target_short/cuefr.h5","stimuli_path":"experiments/cat_target_short/assets/cuefr_pool.txt","category_path":"experiments/cat_target_short/assets/cuefr_labels.txt","subjectId":0},{"load_time":1008929.5,"word_display_times":[1008929.5,1011942.2999992371,1014960.8999977112,1017974.5,1020992.5999984741,1024006.2999992371],"word_list":["SPINACH","ORLANDO","COMMANDER","MIXER","TAN","DODGE"],"category_list":["VEGETABLES","CITIES","MILITARY TITLES","KITCHEN TOOLS","COLORS","CAR MODELS"],"trial_type":"item-presentation","trial_index":104,"time_elapsed":1023030,"internal_node_id":"0.0-104.0","PROLIFIC ID":"","data_path":"experiments/cat_target_short/cuefr.h5","stimuli_path":"experiments/cat_target_short/assets/cuefr_pool.txt","category_path":"experiments/cat_target_short/assets/cuefr_labels.txt","subjectId":0},{"load_time":1027030.3999977112,"recall_display_time":1027030.3999977112,"category_cue":"COLORS","recall_responses":[["t",1417],["a",64],["n",120],["ENTER",304]],"recall_words":["tan"],"recall_word_response_times":[1417],"category_target":140,"category_target_string":"TAN","trial_type":"free-recall","trial_index":105,"time_elapsed":1024940,"internal_node_id":"0.0-105.0","PROLIFIC ID":"","data_path":"experiments/cat_target_short/cuefr.h5","stimuli_path":"experiments/cat_target_short/assets/cuefr_pool.txt","category_path":"experiments/cat_target_short/assets/cuefr_labels.txt","subjectId":0},{"load_time":1028936.7999992371,"recall_display_time":1028936.7999992371,"category_cue":"","recall_responses":[["m",927],["i",168],["c",192],["e",256],["backspace",464],["backspace",152],["x",80],["e",152],["r",104],["ENTER",184],["o",768],["r",264],["l",144],["a",120],["n",120],["d",128],["o",144],["ENTER",288],["d",5256],["o",144],["d",288],["g",208],["e",144],["ENTER",376]],"recall_words":["mixer","orlando","dodge"],"recall_word_response_times":[927,768,5256],"category_target":"","category_target_string":"","trial_type":"free-recall","trial_index":106,"time_elapsed":1054951,"internal_node_id":"0.0-106.0","PROLIFIC ID":"","data_path":"experiments/cat_target_short/cuefr.h5","stimuli_path":"experiments/cat_target_short/assets/cuefr_pool.txt","category_path":"experiments/cat_target_short/assets/cuefr_labels.txt","subjectId":0},{"trial_type":"call-function","trial_index":107,"time_elapsed":1054951,"internal_node_id":"0.0-107.0","PROLIFIC ID":"","data_path":"experiments/cat_target_short/cuefr.h5","stimuli_path":"experiments/cat_target_short/assets/cuefr_pool.txt","category_path":"experiments/cat_target_short/assets/cuefr_labels.txt","subjectId":0},{"view_history":[{"page_index":0,"viewing_time":3894}],"rt":3894,"trial_index":108,"trial_count":20,"message":"<p >When you're ready for the next trial, press Next.</p>","trial_type":"instructions","time_elapsed":1058846,"internal_node_id":"0.0-108.0","PROLIFIC ID":"","data_path":"experiments/cat_target_short/cuefr.h5","stimuli_path":"experiments/cat_target_short/assets/cuefr_pool.txt","category_path":"experiments/cat_target_short/assets/cuefr_labels.txt","subjectId":0},{"trial_type":"call-function","trial_index":109,"time_elapsed":1058846,"internal_node_id":"0.0-109.0","PROLIFIC ID":"","data_path":"experiments/cat_target_short/cuefr.h5","stimuli_path":"experiments/cat_target_short/assets/cuefr_pool.txt","category_path":"experiments/cat_target_short/assets/cuefr_labels.txt","subjectId":0},{"load_time":1062840.0999984741,"fixation_display_time":1062840.0999984741,"trial_type":"fixation","trial_index":110,"time_elapsed":1059852,"internal_node_id":"0.0-110.0","PROLIFIC ID":"","data_path":"experiments/cat_target_short/cuefr.h5","stimuli_path":"experiments/cat_target_short/assets/cuefr_pool.txt","category_path":"experiments/cat_target_short/assets/cuefr_labels.txt","subjectId":0},{"load_time":1063846.799999237,"word_display_times":[1063846.799999237,1066864.799999237,1069878,1072896.5999984741,1075910.299999237,1078928.5999984741],"word_list":["OTTOMAN","BATHROOM","GREECE","ESSAY","BASIL","CANOE"],"category_list":["FURNITURE","BUILDING PARTS","COUNTRIES","READING MATERIALS","SEASONINGS","SHIPS"],"trial_type":"item-presentation","trial_index":111,"time_elapsed":1077949,"internal_node_id":"0.0-111.0","PROLIFIC ID":"","data_path":"experiments/cat_target_short/cuefr.h5","stimuli_path":"experiments/cat_target_short/assets/cuefr_pool.txt","category_path":"experiments/cat_target_short/assets/cuefr_labels.txt","subjectId":0},{"load_time":1081948.3999977112,"recall_display_time":1081948.3999977112,"category_cue":"","recall_responses":[["b",2467],["a",128],["s",96],["i",808],["l",320],["ENTER",495]],"recall_words":["basil"],"recall_word_response_times":[2467],"category_target":0,"category_target_string":"","trial_type":"free-recall","trial_index":112,"time_elapsed":1082270,"internal_node_id":"0.0-112.0","PROLIFIC ID":"","data_path":"experiments/cat_target_short/cuefr.h5","stimuli_path":"experiments/cat_target_short/assets/cuefr_pool.txt","category_path":"experiments/cat_target_short/assets/cuefr_labels.txt","subjectId":0},{"load_time":1086264.799999237,"recall_display_time":1086264.799999237,"category_cue":"","recall_responses":[["b",1423],["a",120],["t",112],["h",104],["r",144],["o",120],["o",152],["m",144],["ENTER",176],["o",824],["t",184],["t",136],["o",80],["m",144],["o",160],["n",168],["backspace",336],["backspace",160],["a",96],["n",104],["ENTER",216],["g",2944],["r",144],["e",232],["e",208],["c",248],["e",176],["ENTER",264],["b",216],["a",104],["s",128],["o",128],["l",200],["backspace",368],["backspace",152],["i",160],["l",176],["ENTER",192]],"recall_words":["bathroom","ottoman","greece","basil"],"recall_word_response_times":[1423,824,2944,216],"category_target":"","category_target_string":"","trial_type":"free-recall","trial_index":113,"time_elapsed":1112281,"internal_node_id":"0.0-113.0","PROLIFIC ID":"","data_path":"experiments/cat_target_short/cuefr.h5","stimuli_path":"experiments/cat_target_short/assets/cuefr_pool.txt","category_path":"experiments/cat_target_short/assets/cuefr_labels.txt","subjectId":0},{"trial_type":"call-function","trial_index":114,"time_elapsed":1112281,"internal_node_id":"0.0-114.0","PROLIFIC ID":"","data_path":"experiments/cat_target_short/cuefr.h5","stimuli_path":"experiments/cat_target_short/assets/cuefr_pool.txt","category_path":"experiments/cat_target_short/assets/cuefr_labels.txt","subjectId":0},{"view_history":[{"page_index":0,"viewing_time":2022}],"rt":2022,"trial_index":115,"trial_count":20,"message":"<p >When you're ready for the next trial, press Next.</p>","trial_type":"instructions","time_elapsed":1114303,"internal_node_id":"0.0-115.0","PROLIFIC ID":"","data_path":"experiments/cat_target_short/cuefr.h5","stimuli_path":"experiments/cat_target_short/assets/cuefr_pool.txt","category_path":"experiments/cat_target_short/assets/cuefr_labels.txt","subjectId":0},{"trial_type":"call-function","trial_index":116,"time_elapsed":1114303,"internal_node_id":"0.0-116.0","PROLIFIC ID":"","data_path":"experiments/cat_target_short/cuefr.h5","stimuli_path":"experiments/cat_target_short/assets/cuefr_pool.txt","category_path":"experiments/cat_target_short/assets/cuefr_labels.txt","subjectId":0},{"load_time":1118296.0999984741,"fixation_display_time":1118296.200000763,"trial_type":"fixation","trial_index":117,"time_elapsed":1115310,"internal_node_id":"0.0-117.0","PROLIFIC ID":"","data_path":"experiments/cat_target_short/cuefr.h5","stimuli_path":"experiments/cat_target_short/assets/cuefr_pool.txt","category_path":"experiments/cat_target_short/assets/cuefr_labels.txt","subjectId":0},{"load_time":1119302.700000763,"word_display_times":[1119302.700000763,1122320.8999977112,1125334.200000763,1128347.700000763,1131364.5999984741,1134385],"word_list":["BROWN","LACE","CADET","DOGWOOD","TRACK","MEASURING CUP"],"category_list":["COLORS","FABRICS","MILITARY TITLES","TREES","SPORTS","KITCHEN TOOLS"],"trial_type":"item-presentation","trial_index":118,"time_elapsed":1133406,"internal_node_id":"0.0-118.0","PROLIFIC ID":"","data_path":"experiments/cat_target_short/cuefr.h5","stimuli_path":"experiments/cat_target_short/assets/cuefr_pool.txt","category_path":"experiments/cat_target_short/assets/cuefr_labels.txt","subjectId":0},{"load_time":1137403.5999984741,"recall_display_time":1137403.700000763,"category_cue":"MILITARY TITLES","recall_responses":[["c",1564],["a",87],["d",152],["e",216],["t",176],["ENTER",424]],"recall_words":["cadet"],"recall_word_response_times":[1564],"category_target":543,"category_target_string":"CADET","trial_type":"free-recall","trial_index":119,"time_elapsed":1136032,"internal_node_id":"0.0-119.0","PROLIFIC ID":"","data_path":"experiments/cat_target_short/cuefr.h5","stimuli_path":"experiments/cat_target_short/assets/cuefr_pool.txt","category_path":"experiments/cat_target_short/assets/cuefr_labels.txt","subjectId":0},{"load_time":1140025,"recall_display_time":1140025.0999984741,"category_cue":"","recall_responses":[["b",2062],["r",160],["o",128],["w",192],["n",56],["ENTER",240],["l",584],["a",88],["c",432],["e",112],["ENTER",216]],"recall_words":["brown","lace"],"recall_word_response_times":[2062,584],"category_target":"","category_target_string":"","trial_type":"free-recall","trial_index":120,"time_elapsed":1166042,"internal_node_id":"0.0-120.0","PROLIFIC ID":"","data_path":"experiments/cat_target_short/cuefr.h5","stimuli_path":"experiments/cat_target_short/assets/cuefr_pool.txt","category_path":"experiments/cat_target_short/assets/cuefr_labels.txt","subjectId":0},{"trial_type":"call-function","trial_index":121,"time_elapsed":1166042,"internal_node_id":"0.0-121.0","PROLIFIC ID":"","data_path":"experiments/cat_target_short/cuefr.h5","stimuli_path":"experiments/cat_target_short/assets/cuefr_pool.txt","category_path":"experiments/cat_target_short/assets/cuefr_labels.txt","subjectId":0},{"view_history":[{"page_index":0,"viewing_time":2702}],"rt":2702,"trial_index":122,"trial_count":20,"message":"<p >When you're ready for the next trial, press Next.</p>","trial_type":"instructions","time_elapsed":1168745,"internal_node_id":"0.0-122.0","PROLIFIC ID":"","data_path":"experiments/cat_target_short/cuefr.h5","stimuli_path":"experiments/cat_target_short/assets/cuefr_pool.txt","category_path":"experiments/cat_target_short/assets/cuefr_labels.txt","subjectId":0},{"trial_type":"call-function","trial_index":123,"time_elapsed":1168745,"internal_node_id":"0.0-123.0","PROLIFIC ID":"","data_path":"experiments/cat_target_short/cuefr.h5","stimuli_path":"experiments/cat_target_short/assets/cuefr_pool.txt","category_path":"experiments/cat_target_short/assets/cuefr_labels.txt","subjectId":0},{"load_time":1172736.0999984741,"fixation_display_time":1172736.0999984741,"trial_type":"fixation","trial_index":124,"time_elapsed":1169754,"internal_node_id":"0.0-124.0","PROLIFIC ID":"","data_path":"experiments/cat_target_short/cuefr.h5","stimuli_path":"experiments/cat_target_short/assets/cuefr_pool.txt","category_path":"experiments/cat_target_short/assets/cuefr_labels.txt","subjectId":0},{"load_time":1173745.5,"word_display_times":[1173745.5,1176758.200000763,1179776.5999984741,1182790.299999237,1185808.8999977112,1188822.299999237],"word_list":["CHILE","CANTALOUPE","LEAFLET","DRESSER","DESERT","SOY SAUCE"],"category_list":["COUNTRIES","FRUIT","READING MATERIALS","FURNITURE","GEOGRAPHY TERMS","SEASONINGS"],"trial_type":"item-presentation","trial_index":125,"time_elapsed":1187851,"internal_node_id":"0.0-125.0","PROLIFIC ID":"","data_path":"experiments/cat_target_short/cuefr.h5","stimuli_path":"experiments/cat_target_short/assets/cuefr_pool.txt","category_path":"experiments/cat_target_short/assets/cuefr_labels.txt","subjectId":0},{"load_time":1191847,"recall_display_time":1191847.0999984741,"category_cue":"","recall_responses":[["s",1777],["o",48],["y",216],[" ",272],["c",208],["a",96],["backspace",280],["backspace",160],["s",88],["a",96],["u",288],["c",136],["e",208],["ENTER",160]],"recall_words":["soy sauce"],"recall_word_response_times":[1777],"category_target":0,"category_target_string":"","trial_type":"free-recall","trial_index":126,"time_elapsed":1191889,"internal_node_id":"0.0-126.0","PROLIFIC ID":"","data_path":"experiments/cat_target_short/cuefr.h5","stimuli_path":"experiments/cat_target_short/assets/cuefr_pool.txt","category_path":"experiments/cat_target_short/assets/cuefr_labels.txt","subjectId":0},{"load_time":1195880.700000763,"recall_display_time":1195880.700000763,"category_cue":"","recall_responses":[["c",1359],["h",112],["i",136],["l",112],["e",112],["ENTER",208],["l",2976],["e",104],["a",232],["f",296],["l",216],["e",96],["t",136],["ENTER",320],["m",13792],["e",104],["a",88],["s",184],["u",184],["r",496],["i",224],["g",208],["backspace",520],["n",264],["g",120],[" ",112],["c",160],["u",72],["p",112],["ENTER",536]],"recall_words":["chile","leaflet","measuring cup"],"recall_word_response_times":[1359,2976,13792],"category_target":"","category_target_string":"","trial_type":"free-recall","trial_index":127,"time_elapsed":1221900,"internal_node_id":"0.0-127.0","PROLIFIC ID":"","data_path":"experiments/cat_target_short/cuefr.h5","stimuli_path":"experiments/cat_target_short/assets/cuefr_pool.txt","category_path":"experiments/cat_target_short/assets/cuefr_labels.txt","subjectId":0},{"trial_type":"call-function","trial_index":128,"time_elapsed":1221900,"internal_node_id":"0.0-128.0","PROLIFIC ID":"","data_path":"experiments/cat_target_short/cuefr.h5","stimuli_path":"experiments/cat_target_short/assets/cuefr_pool.txt","category_path":"experiments/cat_target_short/assets/cuefr_labels.txt","subjectId":0},{"view_history":[{"page_index":0,"viewing_time":2726}],"rt":2726,"trial_index":129,"trial_count":20,"message":"<p >When you're ready for the next trial, press Next.</p>","trial_type":"instructions","time_elapsed":1224627,"internal_node_id":"0.0-129.0","PROLIFIC ID":"","data_path":"experiments/cat_target_short/cuefr.h5","stimuli_path":"experiments/cat_target_short/assets/cuefr_pool.txt","category_path":"experiments/cat_target_short/assets/cuefr_labels.txt","subjectId":0},{"trial_type":"call-function","trial_index":130,"time_elapsed":1224627,"internal_node_id":"0.0-130.0","PROLIFIC ID":"","data_path":"experiments/cat_target_short/cuefr.h5","stimuli_path":"experiments/cat_target_short/assets/cuefr_pool.txt","category_path":"experiments/cat_target_short/assets/cuefr_labels.txt","subjectId":0},{"load_time":1228616,"fixation_display_time":1228616,"trial_type":"fixation","trial_index":131,"time_elapsed":1225633,"internal_node_id":"0.0-131.0","PROLIFIC ID":"","data_path":"experiments/cat_target_short/cuefr.h5","stimuli_path":"experiments/cat_target_short/assets/cuefr_pool.txt","category_path":"experiments/cat_target_short/assets/cuefr_labels.txt","subjectId":0},{"load_time":1229622.5,"word_display_times":[1229622.5,1232640.8999977112,1235654.0999984741,1238672.799999237,1241684.5,1244704.8999977112],"word_list":["MAJOR","SANDER","MAROON","BONE","ENGINEER","RHODE ISLAND"],"category_list":["MILITARY TITLES","CARPENTRY TOOLS","COLORS","BODY PARTS","OCCUPATIONS","STATES"],"trial_type":"item-presentation","trial_index":132,"time_elapsed":1243730,"internal_node_id":"0.0-132.0","PROLIFIC ID":"","data_path":"experiments/cat_target_short/cuefr.h5","stimuli_path":"experiments/cat_target_short/assets/cuefr_pool.txt","category_path":"experiments/cat_target_short/assets/cuefr_labels.txt","subjectId":0},{"load_time":1247723.5999984741,"recall_display_time":1247723.5999984741,"category_cue":"OCCUPATIONS","recall_responses":[["e",6452],["n",111],["g",184],["i",112],["n",96],["e",200],["e",400],["r",112],["ENTER",1224]],"recall_words":["engineer"],"recall_word_response_times":[6452],"category_target":360,"category_target_string":"ENGINEER","trial_type":"free-recall","trial_index":133,"time_elapsed":1252627,"internal_node_id":"0.0-133.0","PROLIFIC ID":"","data_path":"experiments/cat_target_short/cuefr.h5","stimuli_path":"experiments/cat_target_short/assets/cuefr_pool.txt","category_path":"experiments/cat_target_short/assets/cuefr_labels.txt","subjectId":0},{"load_time":1256616.8999977112,"recall_display_time":1256617,"category_cue":"","recall_responses":[["s",1654],["a",104],["n",120],["d",120],["e",176],["r",88],["ENTER",208],["m",1512],["a",104],["j",160],["o",128],["r",80],["ENTER",192],["m",1888],["a",144],["r",104],["o",88],["o",160],["n",160],["ENTER",808],["s",11688],["a",144],["n",280],["d",152],["e",176],["r",96],["backspace",736],["backspace",224],["backspace",168],["backspace",176],["backspace",160],["backspace",912]],"recall_words":["sander","major","maroon"],"recall_word_response_times":[1654,1512,1888,11688],"category_target":"","category_target_string":"","trial_type":"free-recall","trial_index":134,"time_elapsed":1282638,"internal_node_id":"0.0-134.0","PROLIFIC ID":"","data_path":"experiments/cat_target_short/cuefr.h5","stimuli_path":"experiments/cat_target_short/assets/cuefr_pool.txt","category_path":"experiments/cat_target_short/assets/cuefr_labels.txt","subjectId":0},{"trial_type":"call-function","trial_index":135,"time_elapsed":1282638,"internal_node_id":"0.0-135.0","PROLIFIC ID":"","data_path":"experiments/cat_target_short/cuefr.h5","stimuli_path":"experiments/cat_target_short/assets/cuefr_pool.txt","category_path":"experiments/cat_target_short/assets/cuefr_labels.txt","subjectId":0},{"view_history":[{"page_index":0,"viewing_time":2606}],"rt":2606,"trial_index":136,"trial_count":20,"message":"<p >When you're ready for the next trial, press Next.</p>","trial_type":"instructions","time_elapsed":1285244,"internal_node_id":"0.0-136.0","PROLIFIC ID":"","data_path":"experiments/cat_target_short/cuefr.h5","stimuli_path":"experiments/cat_target_short/assets/cuefr_pool.txt","category_path":"experiments/cat_target_short/assets/cuefr_labels.txt","subjectId":0},{"trial_type":"call-function","trial_index":137,"time_elapsed":1285244,"internal_node_id":"0.0-137.0","PROLIFIC ID":"","data_path":"experiments/cat_target_short/cuefr.h5","stimuli_path":"experiments/cat_target_short/assets/cuefr_pool.txt","category_path":"experiments/cat_target_short/assets/cuefr_labels.txt","subjectId":0},{"load_time":1289232,"fixation_display_time":1289232,"trial_type":"fixation","trial_index":138,"time_elapsed":1286254,"internal_node_id":"0.0-138.0","PROLIFIC ID":"","data_path":"experiments/cat_target_short/cuefr.h5","stimuli_path":"experiments/cat_target_short/assets/cuefr_pool.txt","category_path":"experiments/cat_target_short/assets/cuefr_labels.txt","subjectId":0},{"load_time":1290241.299999237,"word_display_times":[1290241.3999977112,1293254.299999237,1296272.5999984741,1299286.3999977112,1302304.5999984741,1305318.299999237],"word_list":["WATERFALL","LOVESEAT","WASHINGTON D.C.","PAPER","BRAZIL","POTATO PEELER"],"category_list":["GEOGRAPHY TERMS","FURNITURE","CITIES","READING MATERIALS","COUNTRIES","KITCHEN TOOLS"],"trial_type":"item-presentation","trial_index":139,"time_elapsed":1304350,"internal_node_id":"0.0-139.0","PROLIFIC ID":"","data_path":"experiments/cat_target_short/cuefr.h5","stimuli_path":"experiments/cat_target_short/assets/cuefr_pool.txt","category_path":"experiments/cat_target_short/assets/cuefr_labels.txt","subjectId":0},{"load_time":1308342.5,"recall_display_time":1308342.5,"category_cue":"","recall_responses":[["w",1441],["a",136],["t",152],["e",200],["r",72],["f",232],["a",88],["l",136],["l",144],["ENTER",224]],"recall_words":["waterfall"],"recall_word_response_times":[1441],"category_target":0,"category_target_string":"","trial_type":"free-recall","trial_index":140,"time_elapsed":1307181,"internal_node_id":"0.0-140.0","PROLIFIC ID":"","data_path":"experiments/cat_target_short/cuefr.h5","stimuli_path":"experiments/cat_target_short/assets/cuefr_pool.txt","category_path":"experiments/cat_target_short/assets/cuefr_labels.txt","subjectId":0},{"load_time":1311169,"recall_display_time":1311169,"category_cue":"","recall_responses":[["w",478],["a",80],["s",184],["h",152],["i",144],["n",88],["t",128],["o",208],["n",128],["backspace",600],["backspace",168],["g",144],["backspace",488],["backspace",160],["g",24],["t",208],["o",56],["n",136],[" ",528],["d",600],["c",1184],["ENTER",424],["b",976],["a",104],["s",160],["backspace",1240],["backspace",432],["r",208],["a",152],["z",336],["i",112],["l",192],["ENTER",624],["p",1008],["o",128],["t",160],["a",120],["t",144],["o",120],[" ",608],["p",224],["e",224],["a",216],["l",800],["backspace",688],["backspace",224],["e",152],["l",104],["i",184],["backspace",368],["e",136],["r",120],["ENTER",832]],"recall_words":["washington dc","brazil","potato peeler"],"recall_word_response_times":[478,976,1008],"category_target":"","category_target_string":"","trial_type":"free-recall","trial_index":141,"time_elapsed":1337189,"internal_node_id":"0.0-141.0","PROLIFIC ID":"","data_path":"experiments/cat_target_short/cuefr.h5","stimuli_path":"experiments/cat_target_short/assets/cuefr_pool.txt","category_path":"experiments/cat_target_short/assets/cuefr_labels.txt","subjectId":0},{"trial_type":"call-function","trial_index":142,"time_elapsed":1337189,"internal_node_id":"0.0-142.0","PROLIFIC ID":"","data_path":"experiments/cat_target_short/cuefr.h5","stimuli_path":"experiments/cat_target_short/assets/cuefr_pool.txt","category_path":"experiments/cat_target_short/assets/cuefr_labels.txt","subjectId":0},{"view_history":[{"page_index":0,"viewing_time":2385}],"rt":2385,"trial_index":143,"trial_count":20,"message":"<p >You have completed the experiment. Thank you for your participation!</p>","trial_type":"instructions","time_elapsed":1339574,"internal_node_id":"0.0-143.0","PROLIFIC ID":"","data_path":"experiments/cat_target_short/cuefr.h5","stimuli_path":"experiments/cat_target_short/assets/cuefr_pool.txt","category_path":"experiments/cat_target_short/assets/cuefr_labels.txt","subjectId":0},{"rt":null,"stimulus":"You've completed the experiment! Your total performance bonus is $4.3125. Click \"SUBMIT\" or wait five seconds to complete the experiment and confirm your bonus. Make sure you proceed to the next page to ensure your bonus is recorded.","response":null,"bonus":4.3125,"trial_type":"html-button-response","trial_index":144,"time_elapsed":1344586,"internal_node_id":"0.0-144.0","PROLIFIC ID":"","data_path":"experiments/cat_target_short/cuefr.h5","stimuli_path":"experiments/cat_target_short/assets/cuefr_pool.txt","category_path":"experiments/cat_target_short/assets/cuefr_labels.txt","subjectId":0}]
