[{"success":true,"rt":16695,"trial_type":"fullscreen","trial_index":0,"time_elapsed":17705,"internal_node_id":"0.0-0.0","PROLIFIC ID":"6653ae434d386b6218f51efb","data_path":"experiments/cat_targ_15/cat_targ_15.h5","stimuli_path":"experiments/cat_targ_15/assets/cuefr_pool.txt","category_path":"experiments/cat_targ_15/assets/cuefr_labels.txt","subjectId":674},{"view_history":[{"page_index":0,"viewing_time":19963},{"page_index":1,"viewing_time":10703},{"page_index":2,"viewing_time":20897},{"page_index":3,"viewing_time":16396},{"page_index":4,"viewing_time":17400},{"page_index":5,"viewing_time":42815},{"page_index":6,"viewing_time":21569},{"page_index":7,"viewing_time":7821}],"rt":157564,"trial_type":"instructions","trial_index":1,"time_elapsed":175271,"internal_node_id":"0.0-1.0","PROLIFIC ID":"6653ae434d386b6218f51efb","data_path":"experiments/cat_targ_15/cat_targ_15.h5","stimuli_path":"experiments/cat_targ_15/assets/cuefr_pool.txt","category_path":"experiments/cat_targ_15/assets/cuefr_labels.txt","subjectId":674},{"view_history":[{"page_index":0,"viewing_time":3304}],"rt":3304,"trial_type":"instructions","trial_index":2,"time_elapsed":178577,"internal_node_id":"0.0-2.0","PROLIFIC ID":"6653ae434d386b6218f51efb","data_path":"experiments/cat_targ_15/cat_targ_15.h5","stimuli_path":"experiments/cat_targ_15/assets/cuefr_pool.txt","category_path":"experiments/cat_targ_15/assets/cuefr_labels.txt","subjectId":674},{"trial_type":"call-function","trial_index":3,"time_elapsed":178578,"internal_node_id":"0.0-3.0","PROLIFIC ID":"6653ae434d386b6218f51efb","data_path":"experiments/cat_targ_15/cat_targ_15.h5","stimuli_path":"experiments/cat_targ_15/assets/cuefr_pool.txt","category_path":"experiments/cat_targ_15/assets/cuefr_labels.txt","subjectId":674},{"trial_type":"call-function","trial_index":4,"time_elapsed":178578,"internal_node_id":"0.0-4.0","PROLIFIC ID":"6653ae434d386b6218f51efb","data_path":"experiments/cat_targ_15/cat_targ_15.h5","stimuli_path":"experiments/cat_targ_15/assets/cuefr_pool.txt","category_path":"experiments/cat_targ_15/assets/cuefr_labels.txt","subjectId":674},{"load_time":189055.5,"fixation_display_time":189055.59999999404,"trial_type":"fixation","trial_index":5,"time_elapsed":179589,"internal_node_id":"0.0-5.0","PROLIFIC ID":"6653ae434d386b6218f51efb","data_path":"experiments/cat_targ_15/cat_targ_15.h5","stimuli_path":"experiments/cat_targ_15/assets/cuefr_pool.txt","category_path":"experiments/cat_targ_15/assets/cuefr_labels.txt","subjectId":674},{"load_time":190066.70000000298,"word_display_times":[190066.79999999702,193094,196115.89999999106,199134.5,202159.59999999404,205179.29999999702,208199.89999999106,211218.5,214239.29999999702,217259.79999999702,220283.39999999106,223306.79999999702,226330.89999999106,229350.89999999106,232369],"word_list":["SNAPPER","BATTLESHIP","DOVE","CUCUMBER","SUNSHINE","BUTTERFLY","LETTER","MEASURING CUP","TORSO","OTTOMAN","WOLF","TABASCO","CHLORINE","SUBARU","LILAC"],"category_list":["FISH","SHIPS","BIRDS","VEGETABLES","WEATHER TERMS","INSECTS","READING MATERIALS","KITCHEN TOOLS","BODY PARTS","FURNITURE","FOUR-FOOTED ANIMALS","SEASONINGS","ELEMENTS","CAR MODELS","FLOWERS"],"trial_type":"item-presentation","trial_index":6,"time_elapsed":224916,"internal_node_id":"0.0-6.0","PROLIFIC ID":"6653ae434d386b6218f51efb","data_path":"experiments/cat_targ_15/cat_targ_15.h5","stimuli_path":"experiments/cat_targ_15/assets/cuefr_pool.txt","category_path":"experiments/cat_targ_15/assets/cuefr_labels.txt","subjectId":674},{"load_time":235399.09999999404,"recall_display_time":235399.5,"category_cue":"","recall_responses":[["s",3928],["m",254],["backspace",775],["m",350],["a",297],["p",2400],["p",156],["e",62],["r",181]],"recall_words":["smapper"],"recall_word_response_times":[3928,0],"category_target":0,"category_target_string":"","trial_type":"free-recall","trial_index":7,"time_elapsed":234926,"internal_node_id":"0.0-7.0","PROLIFIC ID":"6653ae434d386b6218f51efb","data_path":"experiments/cat_targ_15/cat_targ_15.h5","stimuli_path":"experiments/cat_targ_15/assets/cuefr_pool.txt","category_path":"experiments/cat_targ_15/assets/cuefr_labels.txt","subjectId":674},{"load_time":245408.20000000298,"recall_display_time":245408.39999999106,"category_cue":"","recall_responses":[["ENTER",391],["b",2772],["u",154],["t",216],["t",146],["e",166],["r",100],["f",269],["l",80],["y",751],["ENTER",800],["c",3080],["h",199],["l",307],["o",232],["r",223],["i",155],["i",327],["n",358],["e",136],[" ",512],["c",493],["u",243],["c",382],["u",100],["m",259],["b",504],["e",180],["r",135],["ENTER",873],["d",892],["o",211],["v",333],["e",161],["ENTER",521],["l",1236],["i",214],["l",241],["a",212],["c",229],["ENTER",899],["t",4692],["o",783],["r",199],["s",352],["o",167],["ENTER",751],["l",724],["e",120],["t",246],["t",161],["e",175],["r",109],["ENTER",723],["s",1493],["u",286],["b",286],["a",196],["r",140],["u",111],["ENTER",927],["w",4837],["o",432],["l",357],["f",200],["ENTER",592],["o",3025],["t",215],["t",166],["o",165],["m",265],["a",187],["n",99],["ENTER",804]],"recall_words":["","butterfly","chloriine cucumber","dove","lilac","torso","letter","subaru","wolf","ottoman"],"recall_word_response_times":[2772,3080,892,1236,4692,724,1493,4837,3025],"category_target":"","category_target_string":"","trial_type":"free-recall","trial_index":8,"time_elapsed":284936,"internal_node_id":"0.0-8.0","PROLIFIC ID":"6653ae434d386b6218f51efb","data_path":"experiments/cat_targ_15/cat_targ_15.h5","stimuli_path":"experiments/cat_targ_15/assets/cuefr_pool.txt","category_path":"experiments/cat_targ_15/assets/cuefr_labels.txt","subjectId":674},{"trial_type":"call-function","trial_index":9,"time_elapsed":284937,"internal_node_id":"0.0-9.0","PROLIFIC ID":"6653ae434d386b6218f51efb","data_path":"experiments/cat_targ_15/cat_targ_15.h5","stimuli_path":"experiments/cat_targ_15/assets/cuefr_pool.txt","category_path":"experiments/cat_targ_15/assets/cuefr_labels.txt","subjectId":674},{"view_history":[{"page_index":0,"viewing_time":20824}],"rt":20824,"trial_index":10,"trial_count":15,"message":"<p >You've completed the first trial! Please click the right arrow on your keyboard to proceed to the next trial.</p>","trial_type":"instructions","time_elapsed":305766,"internal_node_id":"0.0-10.0","PROLIFIC ID":"6653ae434d386b6218f51efb","data_path":"experiments/cat_targ_15/cat_targ_15.h5","stimuli_path":"experiments/cat_targ_15/assets/cuefr_pool.txt","category_path":"experiments/cat_targ_15/assets/cuefr_labels.txt","subjectId":674},{"trial_type":"call-function","trial_index":11,"time_elapsed":305766,"internal_node_id":"0.0-11.0","PROLIFIC ID":"6653ae434d386b6218f51efb","data_path":"experiments/cat_targ_15/cat_targ_15.h5","stimuli_path":"experiments/cat_targ_15/assets/cuefr_pool.txt","category_path":"experiments/cat_targ_15/assets/cuefr_labels.txt","subjectId":674},{"load_time":316241.799999997,"fixation_display_time":316241.799999997,"trial_type":"fixation","trial_index":12,"time_elapsed":306778,"internal_node_id":"0.0-12.0","PROLIFIC ID":"6653ae434d386b6218f51efb","data_path":"experiments/cat_targ_15/cat_targ_15.h5","stimuli_path":"experiments/cat_targ_15/assets/cuefr_pool.txt","category_path":"experiments/cat_targ_15/assets/cuefr_labels.txt","subjectId":674},{"load_time":317255.799999997,"word_display_times":[317255.799999997,320277.299999997,323297.200000003,326323.799999997,329345.59999999404,332369.700000003,335391.59999999404,338414.799999997,341436.09999999404,344463.09999999404,347484.299999997,350503.89999999106,353523.39999999106,356545,359567.89999999106],"word_list":["GRAY","MILK","ATLANTA","AUSTRALIA","MAJOR","SATIN","ADOBE","POLICE OFFICER","PAJAMAS","RHODE ISLAND","SANDPAPER","STAIRWAY","WILLOW","WATERMELON","CANYON"],"category_list":["COLORS","BEVERAGES","CITIES","COUNTRIES","MILITARY TITLES","FABRICS","DWELLINGS","OCCUPATIONS","CLOTHES","STATES","CARPENTRY TOOLS","BUILDING PARTS","TREES","FRUIT","GEOGRAPHY TERMS"],"trial_type":"item-presentation","trial_index":13,"time_elapsed":352115,"internal_node_id":"0.0-13.0","PROLIFIC ID":"6653ae434d386b6218f51efb","data_path":"experiments/cat_targ_15/cat_targ_15.h5","stimuli_path":"experiments/cat_targ_15/assets/cuefr_pool.txt","category_path":"experiments/cat_targ_15/assets/cuefr_labels.txt","subjectId":674},{"load_time":362597.59999999404,"recall_display_time":362597.700000003,"category_cue":"BEVERAGES","recall_responses":[["m",3815],["i",316],["l",356],["l",246],["backspace",1235],["k",663],["ENTER",1975]],"recall_words":["milk"],"recall_word_response_times":[3815],"category_target":546,"category_target_string":"MILK","trial_type":"free-recall","trial_index":14,"time_elapsed":360731,"internal_node_id":"0.0-14.0","PROLIFIC ID":"6653ae434d386b6218f51efb","data_path":"experiments/cat_targ_15/cat_targ_15.h5","stimuli_path":"experiments/cat_targ_15/assets/cuefr_pool.txt","category_path":"experiments/cat_targ_15/assets/cuefr_labels.txt","subjectId":674},{"load_time":371208.700000003,"recall_display_time":371208.799999997,"category_cue":"","recall_responses":[[" ",1265],["ENTER",878],["a",6569],["d",315],["o",343],["b",298],["e",165],["ENTER",745],["p",2843],["o",215],["l",246],["i",283],["c",202],["e",163],[" ",135],["o",154],["f",123],["f",173],["i",100],["c",200],["e",156],["r",157],["ENTER",460],["s",3839],["a",189],["t",187],["i",120],["n",230],["ENTER",799],["g",1345],["r",448],["a",271],["y",478],[" ",562],["a",1530],["t",186],["l",186],["a",185],["n",171],["t",182],["a",254],["ENTER",526],["r",1527],["h",181],["o",246],["d",632],["e",198],["i",485],["s",200],["l",176],["a",159],["n",151],["d",171],["backspace",1422],["backspace",177],["backspace",162],["backspace",171],["backspace",371],["backspace",573],["backspace",48],["e",966],[" ",217],["i",190],["s",134],["l",116],["a",176],["n",159],["d",135],["ENTER",839],["w",3757],["a",155],["t",251],["e",131],["r",146],["e",296],["backspace",1120],["m",417],["e",281],["l",361],["o",220],["n",466],["ENTER",769],["c",930],["a",175],["n",175],["y",351],["o",317],["n",275],["ENTER",678]],"recall_words":[" ","adobe","police officer","satin","gray atlanta","rhode island","watermelon","canyon"],"recall_word_response_times":[1265,6569,2843,3839,1345,1527,3757,930],"category_target":"","category_target_string":"","trial_type":"free-recall","trial_index":15,"time_elapsed":410743,"internal_node_id":"0.0-15.0","PROLIFIC ID":"6653ae434d386b6218f51efb","data_path":"experiments/cat_targ_15/cat_targ_15.h5","stimuli_path":"experiments/cat_targ_15/assets/cuefr_pool.txt","category_path":"experiments/cat_targ_15/assets/cuefr_labels.txt","subjectId":674},{"trial_type":"call-function","trial_index":16,"time_elapsed":410744,"internal_node_id":"0.0-16.0","PROLIFIC ID":"6653ae434d386b6218f51efb","data_path":"experiments/cat_targ_15/cat_targ_15.h5","stimuli_path":"experiments/cat_targ_15/assets/cuefr_pool.txt","category_path":"experiments/cat_targ_15/assets/cuefr_labels.txt","subjectId":674},{"view_history":[{"page_index":0,"viewing_time":6625}],"rt":6625,"trial_index":17,"trial_count":15,"message":"<p >When you're ready to proceed, press Next.</p>","trial_type":"instructions","time_elapsed":417370,"internal_node_id":"0.0-17.0","PROLIFIC ID":"6653ae434d386b6218f51efb","data_path":"experiments/cat_targ_15/cat_targ_15.h5","stimuli_path":"experiments/cat_targ_15/assets/cuefr_pool.txt","category_path":"experiments/cat_targ_15/assets/cuefr_labels.txt","subjectId":674},{"trial_type":"call-function","trial_index":18,"time_elapsed":417370,"internal_node_id":"0.0-18.0","PROLIFIC ID":"6653ae434d386b6218f51efb","data_path":"experiments/cat_targ_15/cat_targ_15.h5","stimuli_path":"experiments/cat_targ_15/assets/cuefr_pool.txt","category_path":"experiments/cat_targ_15/assets/cuefr_labels.txt","subjectId":674},{"load_time":427845.299999997,"fixation_display_time":427845.299999997,"trial_type":"fixation","trial_index":19,"time_elapsed":418377,"internal_node_id":"0.0-19.0","PROLIFIC ID":"6653ae434d386b6218f51efb","data_path":"experiments/cat_targ_15/cat_targ_15.h5","stimuli_path":"experiments/cat_targ_15/assets/cuefr_pool.txt","category_path":"experiments/cat_targ_15/assets/cuefr_labels.txt","subjectId":674},{"load_time":428853.89999999106,"word_display_times":[428853.89999999106,431864.799999997,434889.59999999404,437912.799999997,440935.59999999404,443958,446977.799999997,449999.5,453023.299999997,456045.39999999106,459064.89999999106,462088.39999999106,465111,468138.299999997,471163],"word_list":["VIOLA","WASP","POTASSIUM","HEART","COLUMBINE","PAPER","TIDAL WAVE","FLOUNDER","PENGUIN","COW","BASIL","GOLF","BOOKCASE","CORVETTE","ROLLING PIN"],"category_list":["INSTRUMENTS","INSECTS","ELEMENTS","BODY PARTS","FLOWERS","READING MATERIALS","WEATHER TERMS","FISH","BIRDS","FOUR-FOOTED ANIMALS","SEASONINGS","SPORTS","FURNITURE","CAR MODELS","KITCHEN TOOLS"],"trial_type":"item-presentation","trial_index":20,"time_elapsed":463714,"internal_node_id":"0.0-20.0","PROLIFIC ID":"6653ae434d386b6218f51efb","data_path":"experiments/cat_targ_15/cat_targ_15.h5","stimuli_path":"experiments/cat_targ_15/assets/cuefr_pool.txt","category_path":"experiments/cat_targ_15/assets/cuefr_labels.txt","subjectId":674},{"load_time":474196,"recall_display_time":474196.200000003,"category_cue":"","recall_responses":[["r",2804],["o",135],["l",154],["l",211],["i",196],["n",257],["n",125],["g",39],[" ",91],["p",283],["i",232],["n",420],["ENTER",494]],"recall_words":["rollinng pin"],"recall_word_response_times":[2804],"category_target":0,"category_target_string":"","trial_type":"free-recall","trial_index":21,"time_elapsed":469166,"internal_node_id":"0.0-21.0","PROLIFIC ID":"6653ae434d386b6218f51efb","data_path":"experiments/cat_targ_15/cat_targ_15.h5","stimuli_path":"experiments/cat_targ_15/assets/cuefr_pool.txt","category_path":"experiments/cat_targ_15/assets/cuefr_labels.txt","subjectId":674},{"load_time":479645.299999997,"recall_display_time":479645.39999999106,"category_cue":"","recall_responses":[["c",538],["o",181],["r",165],["v",267],["e",161],["t",301],["t",155],["e",231],[" ",306],["w",2175],["a",199],["s",185],["p",413],[" ",415],["h",1160],["a",306],["r",413],["t",239],[" ",131],["p",598],["o",431],["t",312],["a",215],["s",216],["s",155],["i",170],["u",202],["i",75],["m",241],["backspace",2351],["backspace",989],["backspace",268],["backspace",180],["backspace",181],["backspace",225],["backspace",1325],["backspace",206],["backspace",176],["backspace",191],["backspace",171],["backspace",180],["backspace",183],["backspace",213],["backspace",176],["backspace",181],["backspace",175],["backspace",175],["backspace",216],["backspace",207],["backspace",327],["ENTER",1178],["w",669],["a",201],["s",199],["p",244],["ENTER",796],["p",522],["o",214],["s",143],["t",239],["a",236],["s",141],["i",236],["u",286],["m",598],["ENTER",620],["h",718],["e",121],["r",271],["t",312],["ENTER",701],["g",1539],["o",148],["l",317],["f",353],["ENTER",726],["b",3557],["s",528],["i",281],["backspace",774],["backspace",175],["a",491],["s",283],["i",216],["l",315],["ENTER",993],["c",1047],["o",351],["l",416],["u",419],["m",320],["b",367],["i",19],["n",236],["e",170],["ENTER",1064],["p",1176],["a",185],["p",172],["e",182],["r",150],["ENTER",766]],"recall_words":["corvette","wasp","postasium","hert","golf","basil","columbine","paper"],"recall_word_response_times":[538,669,522,718,1539,3557,1047,1176],"category_target":"","category_target_string":"","trial_type":"free-recall","trial_index":22,"time_elapsed":519180,"internal_node_id":"0.0-22.0","PROLIFIC ID":"6653ae434d386b6218f51efb","data_path":"experiments/cat_targ_15/cat_targ_15.h5","stimuli_path":"experiments/cat_targ_15/assets/cuefr_pool.txt","category_path":"experiments/cat_targ_15/assets/cuefr_labels.txt","subjectId":674},{"trial_type":"call-function","trial_index":23,"time_elapsed":519180,"internal_node_id":"0.0-23.0","PROLIFIC ID":"6653ae434d386b6218f51efb","data_path":"experiments/cat_targ_15/cat_targ_15.h5","stimuli_path":"experiments/cat_targ_15/assets/cuefr_pool.txt","category_path":"experiments/cat_targ_15/assets/cuefr_labels.txt","subjectId":674},{"view_history":[{"page_index":0,"viewing_time":19475}],"rt":19475,"trial_index":24,"trial_count":15,"message":"<p >When you're ready to proceed, press Next.</p>","trial_type":"instructions","time_elapsed":538656,"internal_node_id":"0.0-24.0","PROLIFIC ID":"6653ae434d386b6218f51efb","data_path":"experiments/cat_targ_15/cat_targ_15.h5","stimuli_path":"experiments/cat_targ_15/assets/cuefr_pool.txt","category_path":"experiments/cat_targ_15/assets/cuefr_labels.txt","subjectId":674},{"trial_type":"call-function","trial_index":25,"time_elapsed":538657,"internal_node_id":"0.0-25.0","PROLIFIC ID":"6653ae434d386b6218f51efb","data_path":"experiments/cat_targ_15/cat_targ_15.h5","stimuli_path":"experiments/cat_targ_15/assets/cuefr_pool.txt","category_path":"experiments/cat_targ_15/assets/cuefr_labels.txt","subjectId":674},{"load_time":549132.099999994,"fixation_display_time":549132.099999994,"trial_type":"fixation","trial_index":26,"time_elapsed":539665,"internal_node_id":"0.0-26.0","PROLIFIC ID":"6653ae434d386b6218f51efb","data_path":"experiments/cat_targ_15/cat_targ_15.h5","stimuli_path":"experiments/cat_targ_15/assets/cuefr_pool.txt","category_path":"experiments/cat_targ_15/assets/cuefr_labels.txt","subjectId":674},{"load_time":550141.700000003,"word_display_times":[550141.700000003,553169.200000003,556184.8999999911,559211.200000003,562217.799999997,565233.5,568258.3999999911,571276.799999997,574302.5,577317.700000003,580344.599999994,583368.099999994,586385.3999999911,589406.8999999911,592429.8999999911],"word_list":["STRAWBERRY","HUT","CHIEF","FIR","SCOTLAND","PEPSI","RAFT","SUEDE","SEATTLE","PHYSICAL THERAPIST","BELT","CABBAGE","BROWN","WATERFALL","LOBBY"],"category_list":["FRUIT","DWELLINGS","MILITARY TITLES","TREES","COUNTRIES","BEVERAGES","SHIPS","FABRICS","CITIES","OCCUPATIONS","CLOTHES","VEGETABLES","COLORS","GEOGRAPHY TERMS","BUILDING PARTS"],"trial_type":"item-presentation","trial_index":27,"time_elapsed":584974,"internal_node_id":"0.0-27.0","PROLIFIC ID":"6653ae434d386b6218f51efb","data_path":"experiments/cat_targ_15/cat_targ_15.h5","stimuli_path":"experiments/cat_targ_15/assets/cuefr_pool.txt","category_path":"experiments/cat_targ_15/assets/cuefr_labels.txt","subjectId":674},{"load_time":595455.799999997,"recall_display_time":595455.8999999911,"category_cue":"GEOGRAPHY TERMS","recall_responses":[["w",5517],["a",170],["t",211],["r",303],["r",115],["backspace",1346],["backspace",170],["e",840],["r",120],["f",238],["a",243],["l",217],["l",171]],"recall_words":["waterfall"],"recall_word_response_times":[5517,0],"category_target":308,"category_target_string":"WATERFALL","trial_type":"free-recall","trial_index":28,"time_elapsed":594984,"internal_node_id":"0.0-28.0","PROLIFIC ID":"6653ae434d386b6218f51efb","data_path":"experiments/cat_targ_15/cat_targ_15.h5","stimuli_path":"experiments/cat_targ_15/assets/cuefr_pool.txt","category_path":"experiments/cat_targ_15/assets/cuefr_labels.txt","subjectId":674},{"load_time":605466.3999999911,"recall_display_time":605466.5,"category_cue":"","recall_responses":[["ENTER",312],["f",3024],["i",466],["r",164],[" ",298],[" ",1099],["p",1091],["p",259],["e",157],["p",257],["s",341],["i",234],[" ",514],["r",1177],["a",191],["f",191],["t",269],[" ",476],["b",1728],["r",221],["o",240],["w",161],["n",192],["backspace",1060],["backspace",1308],["backspace",188],["backspace",181],["backspace",170],["backspace",171],["backspace",161],["backspace",186],["backspace",149],["backspace",241],["backspace",196],["backspace",226],["backspace",190],["backspace",182],["backspace",205],["backspace",186],["e",924],["p",301],["s",245],["i",392],["backspace",788],["backspace",171],["backspace",182],["backspace",154],["backspace",166],["ENTER",648],["p",768],["e",262],["p",179],["s",277],["i",233],["ENTER",719],["r",1170],["a",194],["f",187],["t",265],["ENTER",276],["b",562],["r",206],["o",386],["w",196],["n",196],["ENTER",646],["b",1060],["e",403],["l",225],["t",253],[" ",331],[" ",376],["s",442],["e",246],["a",175],["t",215],["t",146],["backspace",905],["backspace",184],["backspace",165],["backspace",151],["backspace",161],[" ",889],["ENTER",722],["s",348],["e",175],["a",196],["t",196],["t",122],["l",260],["e",144],["ENTER",653],["c",989],["h",497],["i",211],["e",170],["f",557],["ENTER",596],["s",785],["t",302],["r",164],["a",985],["w",256],["b",360],["e",171],["r",241],["r",127],["y",257],["ENTER",775],["h",2518],["y",195],["t",493]],"recall_words":["","fir  ","pepsi","raft","brown","belt   ","seattle","chief","strawberry","hyt"],"recall_word_response_times":[3024,768,1170,562,1060,348,989,785,2518,0],"category_target":"","category_target_string":"","trial_type":"free-recall","trial_index":29,"time_elapsed":644999,"internal_node_id":"0.0-29.0","PROLIFIC ID":"6653ae434d386b6218f51efb","data_path":"experiments/cat_targ_15/cat_targ_15.h5","stimuli_path":"experiments/cat_targ_15/assets/cuefr_pool.txt","category_path":"experiments/cat_targ_15/assets/cuefr_labels.txt","subjectId":674},{"trial_type":"call-function","trial_index":30,"time_elapsed":645000,"internal_node_id":"0.0-30.0","PROLIFIC ID":"6653ae434d386b6218f51efb","data_path":"experiments/cat_targ_15/cat_targ_15.h5","stimuli_path":"experiments/cat_targ_15/assets/cuefr_pool.txt","category_path":"experiments/cat_targ_15/assets/cuefr_labels.txt","subjectId":674},{"view_history":[{"page_index":0,"viewing_time":91522}],"rt":91523,"trial_index":31,"trial_count":15,"message":"<p >When you're ready to proceed, press Next.</p>","trial_type":"instructions","time_elapsed":736524,"internal_node_id":"0.0-31.0","PROLIFIC ID":"6653ae434d386b6218f51efb","data_path":"experiments/cat_targ_15/cat_targ_15.h5","stimuli_path":"experiments/cat_targ_15/assets/cuefr_pool.txt","category_path":"experiments/cat_targ_15/assets/cuefr_labels.txt","subjectId":674},{"trial_type":"call-function","trial_index":32,"time_elapsed":736525,"internal_node_id":"0.0-32.0","PROLIFIC ID":"6653ae434d386b6218f51efb","data_path":"experiments/cat_targ_15/cat_targ_15.h5","stimuli_path":"experiments/cat_targ_15/assets/cuefr_pool.txt","category_path":"experiments/cat_targ_15/assets/cuefr_labels.txt","subjectId":674},{"load_time":747000.299999997,"fixation_display_time":747000.299999997,"trial_type":"fixation","trial_index":33,"time_elapsed":737530,"internal_node_id":"0.0-33.0","PROLIFIC ID":"6653ae434d386b6218f51efb","data_path":"experiments/cat_targ_15/cat_targ_15.h5","stimuli_path":"experiments/cat_targ_15/assets/cuefr_pool.txt","category_path":"experiments/cat_targ_15/assets/cuefr_labels.txt","subjectId":674},{"load_time":748007.299999997,"word_display_times":[748007.299999997,751028.599999994,754052.299999997,757068.299999997,760091.799999997,763113.799999997,766133.299999997,769156.299999997,772181.599999994,775205.799999997,778235.799999997,781255.599999994,784282,787302.299999997,790324.5],"word_list":["SLEET","LITHIUM","DODGE","CINNAMON","DRESSER","LIPS","RACQUETBALL","CATFISH","CLARINET","DRAGONFLY","LILY","WEB SITE","OWL","TONGS","IOWA"],"category_list":["WEATHER TERMS","ELEMENTS","CAR MODELS","SEASONINGS","FURNITURE","BODY PARTS","SPORTS","FISH","INSTRUMENTS","INSECTS","FLOWERS","READING MATERIALS","BIRDS","KITCHEN TOOLS","STATES"],"trial_type":"item-presentation","trial_index":34,"time_elapsed":782876,"internal_node_id":"0.0-34.0","PROLIFIC ID":"6653ae434d386b6218f51efb","data_path":"experiments/cat_targ_15/cat_targ_15.h5","stimuli_path":"experiments/cat_targ_15/assets/cuefr_pool.txt","category_path":"experiments/cat_targ_15/assets/cuefr_labels.txt","subjectId":674},{"load_time":793359.8999999911,"recall_display_time":793360.099999994,"category_cue":"FISH","recall_responses":[],"recall_words":[],"recall_word_response_times":[],"category_target":219,"category_target_string":"CATFISH","trial_type":"free-recall","trial_index":35,"time_elapsed":792890,"internal_node_id":"0.0-35.0","PROLIFIC ID":"6653ae434d386b6218f51efb","data_path":"experiments/cat_targ_15/cat_targ_15.h5","stimuli_path":"experiments/cat_targ_15/assets/cuefr_pool.txt","category_path":"experiments/cat_targ_15/assets/cuefr_labels.txt","subjectId":674},{"load_time":803371.700000003,"recall_display_time":803371.8999999911,"category_cue":"","recall_responses":[["l",2685],["i",230],["l",231],["y",467],["ENTER",617],["s",2391],["l",231],["e",310],["e",186],["t",328],["ENTER",685],["r",702],["a",212],["c",305],["q",342],["u",382],["e",264],["r",252],["b",306],["a",241],["l",278],["l",198],["ENTER",391],["c",986],["i",214],["n",268],["n",192],["a",270],["m",164],["o",1337],["n",247],["ENTER",435],[" ",508],["l",256],["i",281],["t",296],["h",140],["i",241],["u",764],["m",446],["ENTER",496],["l",1773],["i",337],["t",326],["h",249],["i",299],["u",284],["m",337],["ENTER",626],["d",1559],["o",205],["d",191],["d",181],["g",126],["e",249],["backspace",634],["backspace",179],["backspace",167],["g",702],["e",200],["ENTER",440],["c",1859],["a",597],["l",1341],["a",141],["r",215],["backspace",2141],["backspace",249],["backspace",293],["backspace",419],["l",887],["a",343],["r",287],["i",230],["n",316],["e",121],["t",256],["ENTER",522],["d",930],["r",281],["e",145],["s",266],["s",156],["e",403],["r",236],["ENTER",565],["t",4113],["o",190],["n",239],["g",189],["s",217],["ENTER",796],["i",1755]],"recall_words":["lily","sleet","racquerball","cinnamon"," lithium","lithium","dodge","clarinet","dresser","tongs","i"],"recall_word_response_times":[2685,2391,702,986,508,1773,1559,1859,930,4113,1755,0],"category_target":"","category_target_string":"","trial_type":"free-recall","trial_index":36,"time_elapsed":842911,"internal_node_id":"0.0-36.0","PROLIFIC ID":"6653ae434d386b6218f51efb","data_path":"experiments/cat_targ_15/cat_targ_15.h5","stimuli_path":"experiments/cat_targ_15/assets/cuefr_pool.txt","category_path":"experiments/cat_targ_15/assets/cuefr_labels.txt","subjectId":674},{"trial_type":"call-function","trial_index":37,"time_elapsed":842911,"internal_node_id":"0.0-37.0","PROLIFIC ID":"6653ae434d386b6218f51efb","data_path":"experiments/cat_targ_15/cat_targ_15.h5","stimuli_path":"experiments/cat_targ_15/assets/cuefr_pool.txt","category_path":"experiments/cat_targ_15/assets/cuefr_labels.txt","subjectId":674},{"view_history":[{"page_index":0,"viewing_time":52205}],"rt":52205,"trial_index":38,"trial_count":15,"message":"<p >When you're ready to proceed, press Next.</p>","trial_type":"instructions","time_elapsed":895117,"internal_node_id":"0.0-38.0","PROLIFIC ID":"6653ae434d386b6218f51efb","data_path":"experiments/cat_targ_15/cat_targ_15.h5","stimuli_path":"experiments/cat_targ_15/assets/cuefr_pool.txt","category_path":"experiments/cat_targ_15/assets/cuefr_labels.txt","subjectId":674},{"trial_type":"call-function","trial_index":39,"time_elapsed":895118,"internal_node_id":"0.0-39.0","PROLIFIC ID":"6653ae434d386b6218f51efb","data_path":"experiments/cat_targ_15/cat_targ_15.h5","stimuli_path":"experiments/cat_targ_15/assets/cuefr_pool.txt","category_path":"experiments/cat_targ_15/assets/cuefr_labels.txt","subjectId":674},{"load_time":905593.599999994,"fixation_display_time":905593.599999994,"trial_type":"fixation","trial_index":40,"time_elapsed":896128,"internal_node_id":"0.0-40.0","PROLIFIC ID":"6653ae434d386b6218f51efb","data_path":"experiments/cat_targ_15/cat_targ_15.h5","stimuli_path":"experiments/cat_targ_15/assets/cuefr_pool.txt","category_path":"experiments/cat_targ_15/assets/cuefr_labels.txt","subjectId":674},{"load_time":906605.599999994,"word_display_times":[906605.599999994,909613.5,912637.5,915662.299999997,918682.700000003,921701.299999997,924724,927742.8999999911,930767.3999999911,933789.599999994,936808.700000003,939828.5,942848.200000003,945870.8999999911,948895],"word_list":["PENCIL","SKIRT","ZEBRA","BIRCH","PLUM","IRELAND","OCEAN","SOLDIER","DINGHY","MAGENTA","LEATHER","ARTICHOKE","NEW ORLEANS","PROFESSOR","ENTRANCE"],"category_list":["CARPENTRY TOOLS","CLOTHES","FOUR-FOOTED ANIMALS","TREES","FRUIT","COUNTRIES","GEOGRAPHY TERMS","MILITARY TITLES","SHIPS","COLORS","FABRICS","VEGETABLES","CITIES","OCCUPATIONS","BUILDING PARTS"],"trial_type":"item-presentation","trial_index":41,"time_elapsed":941445,"internal_node_id":"0.0-41.0","PROLIFIC ID":"6653ae434d386b6218f51efb","data_path":"experiments/cat_targ_15/cat_targ_15.h5","stimuli_path":"experiments/cat_targ_15/assets/cuefr_pool.txt","category_path":"experiments/cat_targ_15/assets/cuefr_labels.txt","subjectId":674},{"load_time":951927.099999994,"recall_display_time":951927.299999997,"category_cue":"","recall_responses":[["e",2652],["n",181],["t",205],["r",205],["a",229],["n",136],["c",186],["e",155],["ENTER",296]],"recall_words":["entrance"],"recall_word_response_times":[2652],"category_target":0,"category_target_string":"","trial_type":"free-recall","trial_index":42,"time_elapsed":945700,"internal_node_id":"0.0-42.0","PROLIFIC ID":"6653ae434d386b6218f51efb","data_path":"experiments/cat_targ_15/cat_targ_15.h5","stimuli_path":"experiments/cat_targ_15/assets/cuefr_pool.txt","category_path":"experiments/cat_targ_15/assets/cuefr_labels.txt","subjectId":674},{"load_time":956178.5,"recall_display_time":956178.599999994,"category_cue":"","recall_responses":[["p",2000],["r",217],["o",105],["f",301],["f",167],["backspace",1566],["e",397],["s",252],["s",179],["o",260],["r",196],["ENTER",400],["d",930],["i",200],["n",604],["g",356],["h",95],["y",312],[" ",374],["n",654],["e",277],["w",165],["backspace",1778],["backspace",245],["backspace",176],[" ",733],["ENTER",1164],["n",488],["e",266],["w",237],[" ",446],["o",311],["r",465],["l",123],["e",90],["a",240],["n",185],["s",165],["ENTER",828],["i",454],["r",204],["e",109],["l",147],["a",241],["n",201],["d",149],["ENTER",923],["p",723],["l",353],["u",432],["m",587],["ENTER",988],["l",3521],["e",146],["a",181],["t",250],["h",121],["e",190],["r",55],["ENTER",611],["a",2321],["r",196],["t",225],["i",211],["c",293],["h",134],["o",337],["k",353],["e",244],["ENTER",878],["o",1733],["c",392],["e",145],["a",240],["n",226],["ENTER",1208],["m",1939],["a",251],["g",231],["e",131],["n",704],["t",229],["a",287],["ENTER",554],["b",7034],["i",385],["r",185]],"recall_words":["professor","dinghy  ","new orleans","ireland","plum","leather","artichoke","ocean","magenta","bir"],"recall_word_response_times":[2000,930,488,454,723,3521,2321,1733,1939,7034,0],"category_target":"","category_target_string":"","trial_type":"free-recall","trial_index":43,"time_elapsed":995710,"internal_node_id":"0.0-43.0","PROLIFIC ID":"6653ae434d386b6218f51efb","data_path":"experiments/cat_targ_15/cat_targ_15.h5","stimuli_path":"experiments/cat_targ_15/assets/cuefr_pool.txt","category_path":"experiments/cat_targ_15/assets/cuefr_labels.txt","subjectId":674},{"trial_type":"call-function","trial_index":44,"time_elapsed":995710,"internal_node_id":"0.0-44.0","PROLIFIC ID":"6653ae434d386b6218f51efb","data_path":"experiments/cat_targ_15/cat_targ_15.h5","stimuli_path":"experiments/cat_targ_15/assets/cuefr_pool.txt","category_path":"experiments/cat_targ_15/assets/cuefr_labels.txt","subjectId":674},{"view_history":[{"page_index":0,"viewing_time":187498}],"rt":187499,"trial_index":45,"trial_count":15,"message":"<p >When you're ready to proceed, press Next.</p>","trial_type":"instructions","time_elapsed":1183209,"internal_node_id":"0.0-45.0","PROLIFIC ID":"6653ae434d386b6218f51efb","data_path":"experiments/cat_targ_15/cat_targ_15.h5","stimuli_path":"experiments/cat_targ_15/assets/cuefr_pool.txt","category_path":"experiments/cat_targ_15/assets/cuefr_labels.txt","subjectId":674},{"trial_type":"call-function","trial_index":46,"time_elapsed":1183210,"internal_node_id":"0.0-46.0","PROLIFIC ID":"6653ae434d386b6218f51efb","data_path":"experiments/cat_targ_15/cat_targ_15.h5","stimuli_path":"experiments/cat_targ_15/assets/cuefr_pool.txt","category_path":"experiments/cat_targ_15/assets/cuefr_labels.txt","subjectId":674},{"load_time":1193685.599999994,"fixation_display_time":1193685.599999994,"trial_type":"fixation","trial_index":47,"time_elapsed":1184224,"internal_node_id":"0.0-47.0","PROLIFIC ID":"6653ae434d386b6218f51efb","data_path":"experiments/cat_targ_15/cat_targ_15.h5","stimuli_path":"experiments/cat_targ_15/assets/cuefr_pool.txt","category_path":"experiments/cat_targ_15/assets/cuefr_labels.txt","subjectId":674},{"load_time":1194701.200000003,"word_display_times":[1194701.299999997,1197719.5,1200737.899999991,1203759.599999994,1206773.299999997,1209789.599999994,1212805.599999994,1215822.5,1218841.5,1221864.599999994,1224883.399999991,1227904.599999994,1230923.700000003,1233946.899999991,1236969],"word_list":["MIXER","WOODPECKER","PAPRIKA","SPRITE","WYOMING","WRIST","ANGELFISH","END TABLE","BROCHURE","CALCIUM","HARP","BOXING","TSUNAMI","LEXUS","TENT"],"category_list":["KITCHEN TOOLS","BIRDS","SEASONINGS","BEVERAGES","STATES","BODY PARTS","FISH","FURNITURE","READING MATERIALS","ELEMENTS","INSTRUMENTS","SPORTS","WEATHER TERMS","CAR MODELS","DWELLINGS"],"trial_type":"item-presentation","trial_index":48,"time_elapsed":1229518,"internal_node_id":"0.0-48.0","PROLIFIC ID":"6653ae434d386b6218f51efb","data_path":"experiments/cat_targ_15/cat_targ_15.h5","stimuli_path":"experiments/cat_targ_15/assets/cuefr_pool.txt","category_path":"experiments/cat_targ_15/assets/cuefr_labels.txt","subjectId":674},{"load_time":1240000.399999991,"recall_display_time":1240000.599999994,"category_cue":"","recall_responses":[["t",2267],["e",279],["n",66],["t",1118],["ENTER",367]],"recall_words":["tent"],"recall_word_response_times":[2267],"category_target":0,"category_target_string":"","trial_type":"free-recall","trial_index":49,"time_elapsed":1233625,"internal_node_id":"0.0-49.0","PROLIFIC ID":"6653ae434d386b6218f51efb","data_path":"experiments/cat_targ_15/cat_targ_15.h5","stimuli_path":"experiments/cat_targ_15/assets/cuefr_pool.txt","category_path":"experiments/cat_targ_15/assets/cuefr_labels.txt","subjectId":674},{"load_time":1244103.299999997,"recall_display_time":1244103.399999991,"category_cue":"","recall_responses":[["l",1814],["e",175],["x",432],["u",266],["s",211],["ENTER",1264],["t",738],["s",363],["u",235],["n",387],["m",321],["a",145],["backspace",865],["backspace",190],["backspace",186],["n",1319],["a",212],["m",119],["i",312],["ENTER",783],["b",2407],["o",180],["x",1022],["i",109],["n",328],["g",175],[" ",267],["m",3704],["i",183],["x",564],["e",253],["r",218],["backspace",1091],["backspace",173],["backspace",155],["backspace",175],["backspace",161],["ENTER",627],["m",527],["i",247],["x",507],["e",316],["r",280],["ENTER",682],["a",1136],["n",205],["g",211],["e",190],["l",201],["f",427],["i",236],["s",210],["h",398],[" ",646],[" ",993],["s",446],["k",148],["i",336],["r",200],["t",359],["ENTER",421],["s",1652],["p",287],["r",245],["i",176],["t",155],["e",161],["ENTER",843],["w",2562],["r",225],["i",306],["s",136],["t",522],["ENTER",787],["b",1311],["r",271],["o",331],["c",526],["h",241],["u",276],["r",171],["e",158],["ENTER",740],["e",2059],["n",354],["d",162],["t",337],["b",511],["backspace",954],["backspace",202],[" ",1044],["t",245],["a",261],["b",260]],"recall_words":["lexus","tsunami","boxing ","mixer","angelfish  skirt","sprite","wrist","brochure","end tab"],"recall_word_response_times":[1814,738,2407,527,1136,1652,2562,1311,2059,0],"category_target":"","category_target_string":"","trial_type":"free-recall","trial_index":50,"time_elapsed":1283635,"internal_node_id":"0.0-50.0","PROLIFIC ID":"6653ae434d386b6218f51efb","data_path":"experiments/cat_targ_15/cat_targ_15.h5","stimuli_path":"experiments/cat_targ_15/assets/cuefr_pool.txt","category_path":"experiments/cat_targ_15/assets/cuefr_labels.txt","subjectId":674},{"trial_type":"call-function","trial_index":51,"time_elapsed":1283636,"internal_node_id":"0.0-51.0","PROLIFIC ID":"6653ae434d386b6218f51efb","data_path":"experiments/cat_targ_15/cat_targ_15.h5","stimuli_path":"experiments/cat_targ_15/assets/cuefr_pool.txt","category_path":"experiments/cat_targ_15/assets/cuefr_labels.txt","subjectId":674},{"view_history":[{"page_index":0,"viewing_time":18987}],"rt":18988,"trial_index":52,"trial_count":15,"message":"<p >When you're ready to proceed, press Next.</p>","trial_type":"instructions","time_elapsed":1302625,"internal_node_id":"0.0-52.0","PROLIFIC ID":"6653ae434d386b6218f51efb","data_path":"experiments/cat_targ_15/cat_targ_15.h5","stimuli_path":"experiments/cat_targ_15/assets/cuefr_pool.txt","category_path":"experiments/cat_targ_15/assets/cuefr_labels.txt","subjectId":674},{"trial_type":"call-function","trial_index":53,"time_elapsed":1302625,"internal_node_id":"0.0-53.0","PROLIFIC ID":"6653ae434d386b6218f51efb","data_path":"experiments/cat_targ_15/cat_targ_15.h5","stimuli_path":"experiments/cat_targ_15/assets/cuefr_pool.txt","category_path":"experiments/cat_targ_15/assets/cuefr_labels.txt","subjectId":674},{"load_time":1313100.899999991,"fixation_display_time":1313100.899999991,"trial_type":"fixation","trial_index":54,"time_elapsed":1303641,"internal_node_id":"0.0-54.0","PROLIFIC ID":"6653ae434d386b6218f51efb","data_path":"experiments/cat_targ_15/cat_targ_15.h5","stimuli_path":"experiments/cat_targ_15/assets/cuefr_pool.txt","category_path":"experiments/cat_targ_15/assets/cuefr_labels.txt","subjectId":674},{"load_time":1314117.399999991,"word_display_times":[1314117.399999991,1317138.299999997,1320162.899999991,1323185.299999997,1326203.899999991,1329227,1332253.099999994,1335278.200000003,1338292.200000003,1341319.5,1344344.200000003,1347363.099999994,1350387.399999991,1353410.799999997,1356431.299999997],"word_list":["SWEATER","DALLAS","DANDELION","WING","SEQUOIA","ISLAND","NYLON","TEAL","OFFICER","DENTIST","ENGLAND","FOX","TUGBOAT","MEASURING STICK","SPIDER"],"category_list":["CLOTHES","CITIES","FLOWERS","BUILDING PARTS","TREES","GEOGRAPHY TERMS","FABRICS","COLORS","MILITARY TITLES","OCCUPATIONS","COUNTRIES","FOUR-FOOTED ANIMALS","SHIPS","CARPENTRY TOOLS","INSECTS"],"trial_type":"item-presentation","trial_index":55,"time_elapsed":1348979,"internal_node_id":"0.0-55.0","PROLIFIC ID":"6653ae434d386b6218f51efb","data_path":"experiments/cat_targ_15/cat_targ_15.h5","stimuli_path":"experiments/cat_targ_15/assets/cuefr_pool.txt","category_path":"experiments/cat_targ_15/assets/cuefr_labels.txt","subjectId":674},{"load_time":1359462,"recall_display_time":1359462.200000003,"category_cue":"TREES","recall_responses":[["f",5214],["s",1833],["e",279],["q",1085],["u",242],["o",529],["i",200],["s",160]],"recall_words":["fsequois"],"recall_word_response_times":[5214,0],"category_target":467,"category_target_string":"SEQUOIA","trial_type":"free-recall","trial_index":56,"time_elapsed":1358995,"internal_node_id":"0.0-56.0","PROLIFIC ID":"6653ae434d386b6218f51efb","data_path":"experiments/cat_targ_15/cat_targ_15.h5","stimuli_path":"experiments/cat_targ_15/assets/cuefr_pool.txt","category_path":"experiments/cat_targ_15/assets/cuefr_labels.txt","subjectId":674},{"load_time":1369477.099999994,"recall_display_time":1369477.099999994,"category_cue":"","recall_responses":[["a",220],["ENTER",329],["i",4499],["s",150],["l",126],["a",196],["n",129],["d",167],["ENTER",521],["m",929],["e",125],["a",201],["s",147],["u",235],["r",144],["i",71],["n",226],["g",115],[" ",215],["s",110],["t",255],["i",107],["c",280],["k",251],["ENTER",517],["t",1350],["e",196],["a",237],["l",1561],["ENTER",531],["n",1037],["y",351],["l",365],["o",215],["n",450],["ENTER",3150],["s",422],["p",343],["i",235],["d",165],["e",182],["r",140],["ENTER",993],["d",1643],["a",210],["l",237],["l",186],["a",129],["s",333],["ENTER",404],["w",1292],["i",170],["n",264],["g",395],["ENTER",544],["t",1878],["u",374],["g",241],["b",310],["o",169],["a",166],["t",293],["ENTER",1460],["d",373],["e",186],["n",175],["t",240],["i",96],["s",216],["t",397],["ENTER",686],["s",3315],["w",287],["e",165],["a",160],["t",222],["e",176],["r",119],["ENTER",833],["w",3797],["o",531],["backspace",767],["i",428],["n",252],["g",154],["ENTER",366]],"recall_words":["a","island","measuring stick","teal","nylon","spider","dallas","wing","tugboat","dentist","sweater","wing"],"recall_word_response_times":[220,4499,929,1350,1037,422,1643,1292,1878,373,3315,3797],"category_target":"","category_target_string":"","trial_type":"free-recall","trial_index":57,"time_elapsed":1409013,"internal_node_id":"0.0-57.0","PROLIFIC ID":"6653ae434d386b6218f51efb","data_path":"experiments/cat_targ_15/cat_targ_15.h5","stimuli_path":"experiments/cat_targ_15/assets/cuefr_pool.txt","category_path":"experiments/cat_targ_15/assets/cuefr_labels.txt","subjectId":674},{"trial_type":"call-function","trial_index":58,"time_elapsed":1409013,"internal_node_id":"0.0-58.0","PROLIFIC ID":"6653ae434d386b6218f51efb","data_path":"experiments/cat_targ_15/cat_targ_15.h5","stimuli_path":"experiments/cat_targ_15/assets/cuefr_pool.txt","category_path":"experiments/cat_targ_15/assets/cuefr_labels.txt","subjectId":674},{"view_history":[{"page_index":0,"viewing_time":43135}],"rt":43135,"trial_index":59,"trial_count":15,"message":"<p >When you're ready to proceed, press Next.</p>","trial_type":"instructions","time_elapsed":1452149,"internal_node_id":"0.0-59.0","PROLIFIC ID":"6653ae434d386b6218f51efb","data_path":"experiments/cat_targ_15/cat_targ_15.h5","stimuli_path":"experiments/cat_targ_15/assets/cuefr_pool.txt","category_path":"experiments/cat_targ_15/assets/cuefr_labels.txt","subjectId":674},{"trial_type":"call-function","trial_index":60,"time_elapsed":1452150,"internal_node_id":"0.0-60.0","PROLIFIC ID":"6653ae434d386b6218f51efb","data_path":"experiments/cat_targ_15/cat_targ_15.h5","stimuli_path":"experiments/cat_targ_15/assets/cuefr_pool.txt","category_path":"experiments/cat_targ_15/assets/cuefr_labels.txt","subjectId":674},{"load_time":1462625.200000003,"fixation_display_time":1462625.200000003,"trial_type":"fixation","trial_index":61,"time_elapsed":1453154,"internal_node_id":"0.0-61.0","PROLIFIC ID":"6653ae434d386b6218f51efb","data_path":"experiments/cat_targ_15/cat_targ_15.h5","stimuli_path":"experiments/cat_targ_15/assets/cuefr_pool.txt","category_path":"experiments/cat_targ_15/assets/cuefr_labels.txt","subjectId":674},{"load_time":1463631.799999997,"word_display_times":[1463631.799999997,1466652.899999991,1469672.700000003,1472697.899999991,1475722.899999991,1478745.700000003,1481764.099999994,1484776,1487792.200000003,1490816.599999994,1493841.099999994,1496865.099999994,1499889,1502915.799999997,1505939.399999991],"word_list":["CAN OPENER","PAMPHLET","TEETH","CARP","CURRY","DROUGHT","WISCONSIN","CANARY","WATER POLO","LEAD","KEYBOARD","CABINET","BROCCOLI","VOLVO","LIME"],"category_list":["KITCHEN TOOLS","READING MATERIALS","BODY PARTS","FISH","SEASONINGS","WEATHER TERMS","STATES","BIRDS","SPORTS","ELEMENTS","INSTRUMENTS","FURNITURE","VEGETABLES","CAR MODELS","FRUIT"],"trial_type":"item-presentation","trial_index":62,"time_elapsed":1498490,"internal_node_id":"0.0-62.0","PROLIFIC ID":"6653ae434d386b6218f51efb","data_path":"experiments/cat_targ_15/cat_targ_15.h5","stimuli_path":"experiments/cat_targ_15/assets/cuefr_pool.txt","category_path":"experiments/cat_targ_15/assets/cuefr_labels.txt","subjectId":674},{"load_time":1508971.599999994,"recall_display_time":1508971.599999994,"category_cue":"CAR MODELS","recall_responses":[["v",2970],["o",194],["l",201],["v",594],["o",159],["ENTER",832]],"recall_words":["volvo"],"recall_word_response_times":[2970],"category_target":76,"category_target_string":"VOLVO","trial_type":"free-recall","trial_index":63,"time_elapsed":1503447,"internal_node_id":"0.0-63.0","PROLIFIC ID":"6653ae434d386b6218f51efb","data_path":"experiments/cat_targ_15/cat_targ_15.h5","stimuli_path":"experiments/cat_targ_15/assets/cuefr_pool.txt","category_path":"experiments/cat_targ_15/assets/cuefr_labels.txt","subjectId":674},{"load_time":1513925.399999991,"recall_display_time":1513925.399999991,"category_cue":"","recall_responses":[["l",2353],["i",386],["m",331],["e",245],[" ",1241],["k",548],["e",206],["y",246],["b",296],["o",135],["a",209],["r",200],["d",312],["backspace",2732],["backspace",165],["backspace",176],["backspace",139],["backspace",167],["backspace",185],["backspace",150],["backspace",504],["ENTER",415],["k",632],["e",182],["y",285],["b",894],["o",409],["a",172],["r",203],["d",276],["ENTER",244],["w",1844],["a",407],["t",236],["e",210],["r",140],[" ",302],[" ",575],["p",1268],["o",532],["l",291],["o",256],["ENTER",556],["t",3627],["e",255],["e",155],["t",197],["h",210],["ENTER",511],["c",1296],["u",693],["r",261],["r",135],["y",166],["ENTER",506],["w",2663],["i",164],["s",507],["c",300],["o",250],["n",236],["s",242],["i",1031],["n",210],["ENTER",692],["b",1397],["r",380],["o",246],["c",575],["c",136],["o",250],["l",448],["i",349],["ENTER",632],["e",1280],["d",401],["backspace",728],["backspace",196],["l",954],["e",274],["a",217],["d",117],["ENTER",942],["p",3994]],"recall_words":["lime ","keyboard","water  polo","teeth","curry","wisconsin","broccoli","lead","p"],"recall_word_response_times":[2353,632,1844,3627,1296,2663,1397,1280,3994,0],"category_target":"","category_target_string":"","trial_type":"free-recall","trial_index":64,"time_elapsed":1553460,"internal_node_id":"0.0-64.0","PROLIFIC ID":"6653ae434d386b6218f51efb","data_path":"experiments/cat_targ_15/cat_targ_15.h5","stimuli_path":"experiments/cat_targ_15/assets/cuefr_pool.txt","category_path":"experiments/cat_targ_15/assets/cuefr_labels.txt","subjectId":674},{"trial_type":"call-function","trial_index":65,"time_elapsed":1553460,"internal_node_id":"0.0-65.0","PROLIFIC ID":"6653ae434d386b6218f51efb","data_path":"experiments/cat_targ_15/cat_targ_15.h5","stimuli_path":"experiments/cat_targ_15/assets/cuefr_pool.txt","category_path":"experiments/cat_targ_15/assets/cuefr_labels.txt","subjectId":674},{"view_history":[{"page_index":0,"viewing_time":19731}],"rt":19731,"trial_index":66,"trial_count":15,"message":"<p >When you're ready to proceed, press Next.</p>","trial_type":"instructions","time_elapsed":1573192,"internal_node_id":"0.0-66.0","PROLIFIC ID":"6653ae434d386b6218f51efb","data_path":"experiments/cat_targ_15/cat_targ_15.h5","stimuli_path":"experiments/cat_targ_15/assets/cuefr_pool.txt","category_path":"experiments/cat_targ_15/assets/cuefr_labels.txt","subjectId":674},{"trial_type":"call-function","trial_index":67,"time_elapsed":1573193,"internal_node_id":"0.0-67.0","PROLIFIC ID":"6653ae434d386b6218f51efb","data_path":"experiments/cat_targ_15/cat_targ_15.h5","stimuli_path":"experiments/cat_targ_15/assets/cuefr_pool.txt","category_path":"experiments/cat_targ_15/assets/cuefr_labels.txt","subjectId":674},{"load_time":1583668.200000003,"fixation_display_time":1583668.200000003,"trial_type":"fixation","trial_index":68,"time_elapsed":1574203,"internal_node_id":"0.0-68.0","PROLIFIC ID":"6653ae434d386b6218f51efb","data_path":"experiments/cat_targ_15/cat_targ_15.h5","stimuli_path":"experiments/cat_targ_15/assets/cuefr_pool.txt","category_path":"experiments/cat_targ_15/assets/cuefr_labels.txt","subjectId":674},{"load_time":1584680,"word_display_times":[1584680,1587700.399999991,1590723.899999991,1593749.099999994,1596765.200000003,1599788,1602808.5,1605828.700000003,1608852.599999994,1611876,1614899.899999991,1617921.700000003,1620937.399999991,1623960.5,1626979.799999997],"word_list":["HAMSTER","FLEA","GLACIER","LEMONADE","GERMANY","BLOUSE","COLONOL","FLEECE","BEIGE","DRILL","DORMITORY","CARPENTER","MAPLE","CARNATION","TAMPA"],"category_list":["FOUR-FOOTED ANIMALS","INSECTS","GEOGRAPHY TERMS","BEVERAGES","COUNTRIES","CLOTHES","MILITARY TITLES","FABRICS","COLORS","CARPENTRY TOOLS","DWELLINGS","OCCUPATIONS","TREES","FLOWERS","CITIES"],"trial_type":"item-presentation","trial_index":69,"time_elapsed":1619526,"internal_node_id":"0.0-69.0","PROLIFIC ID":"6653ae434d386b6218f51efb","data_path":"experiments/cat_targ_15/cat_targ_15.h5","stimuli_path":"experiments/cat_targ_15/assets/cuefr_pool.txt","category_path":"experiments/cat_targ_15/assets/cuefr_labels.txt","subjectId":674},{"load_time":1630007.799999997,"recall_display_time":1630007.899999991,"category_cue":"","recall_responses":[["h",3688],["a",196],["m",999],["s",169],["t",398],["r",280],["backspace",999],["backspace",174],["t",951],["e",213],["r",187],["ENTER",296]],"recall_words":["hamster"],"recall_word_response_times":[3688],"category_target":0,"category_target_string":"","trial_type":"free-recall","trial_index":70,"time_elapsed":1628086,"internal_node_id":"0.0-70.0","PROLIFIC ID":"6653ae434d386b6218f51efb","data_path":"experiments/cat_targ_15/cat_targ_15.h5","stimuli_path":"experiments/cat_targ_15/assets/cuefr_pool.txt","category_path":"experiments/cat_targ_15/assets/cuefr_labels.txt","subjectId":674},{"load_time":1638564.299999997,"recall_display_time":1638564.5,"category_cue":"","recall_responses":[["d",2081],["r",290],["i",215],["l",435],["l",379],["ENTER",538],["t",819],["a",317],["m",85],["p",618],["a",301],["ENTER",491],["c",1803],["a",260],["backspace",3065],["backspace",185],["g",749],["l",159],["a",205],["c",347],["i",236],["e",160],["r",180],["ENTER",593],["b",6951],["l",119],["o",743],["u",296],["s",160],["e",236],["ENTER",406],["b",2180],["e",186],["i",175],["g",196],["e",174],["ENTER",1165],["d",2703],["o",1028],["r",251],["m",160],["i",1373],["t",243],["o",3452],["r",766],["y",1142],[" ",276],["c",221],["a",192],["r",292],["p",231],["e",181],["backspace",1982],["backspace",153],["backspace",165],["backspace",164],["backspace",206],["backspace",212],["ENTER",426],["c",663],["a",196],["r",157],["p",310],["e",184],["n",192],["t",172],["e",170],["r",176],["ENTER",729],["l",504],["e",109],["m",206],["o",227],["n",131],["a",161],["d",231],["e",194],["ENTER",895]],"recall_words":["drill","tampa","glacier","blouse","beige","dormitory","carpenter","lemonade"],"recall_word_response_times":[2081,819,1803,6951,2180,2703,663,504],"category_target":"","category_target_string":"","trial_type":"free-recall","trial_index":71,"time_elapsed":1678100,"internal_node_id":"0.0-71.0","PROLIFIC ID":"6653ae434d386b6218f51efb","data_path":"experiments/cat_targ_15/cat_targ_15.h5","stimuli_path":"experiments/cat_targ_15/assets/cuefr_pool.txt","category_path":"experiments/cat_targ_15/assets/cuefr_labels.txt","subjectId":674},{"trial_type":"call-function","trial_index":72,"time_elapsed":1678101,"internal_node_id":"0.0-72.0","PROLIFIC ID":"6653ae434d386b6218f51efb","data_path":"experiments/cat_targ_15/cat_targ_15.h5","stimuli_path":"experiments/cat_targ_15/assets/cuefr_pool.txt","category_path":"experiments/cat_targ_15/assets/cuefr_labels.txt","subjectId":674},{"view_history":[{"page_index":0,"viewing_time":13483}],"rt":13483,"trial_index":73,"trial_count":15,"message":"<p >When you're ready to proceed, press Next.</p>","trial_type":"instructions","time_elapsed":1691585,"internal_node_id":"0.0-73.0","PROLIFIC ID":"6653ae434d386b6218f51efb","data_path":"experiments/cat_targ_15/cat_targ_15.h5","stimuli_path":"experiments/cat_targ_15/assets/cuefr_pool.txt","category_path":"experiments/cat_targ_15/assets/cuefr_labels.txt","subjectId":674},{"trial_type":"call-function","trial_index":74,"time_elapsed":1691585,"internal_node_id":"0.0-74.0","PROLIFIC ID":"6653ae434d386b6218f51efb","data_path":"experiments/cat_targ_15/cat_targ_15.h5","stimuli_path":"experiments/cat_targ_15/assets/cuefr_pool.txt","category_path":"experiments/cat_targ_15/assets/cuefr_labels.txt","subjectId":674},{"load_time":1702060.5,"fixation_display_time":1702060.599999994,"trial_type":"fixation","trial_index":75,"time_elapsed":1692587,"internal_node_id":"0.0-75.0","PROLIFIC ID":"6653ae434d386b6218f51efb","data_path":"experiments/cat_targ_15/cat_targ_15.h5","stimuli_path":"experiments/cat_targ_15/assets/cuefr_pool.txt","category_path":"experiments/cat_targ_15/assets/cuefr_labels.txt","subjectId":674},{"load_time":1703063.799999997,"word_display_times":[1703063.799999997,1706081.599999994,1709106.200000003,1712121.700000003,1715144.899999991,1718170.200000003,1721193.099999994,1724213.899999991,1727235.599999994,1730263.899999991,1733280.200000003,1736297.099999994,1739323.399999991,1742343.799999997,1745362.099999994],"word_list":["SOY SAUCE","FERRARI","BLUEBERRY","TROMBONE","ROOM","CRUISE SHIP","NIGHTSTAND","JOURNAL","MERCURY","POTATO","TONGUE","SWIMMING","SKILLET","HAIL","NEBRASKA"],"category_list":["SEASONINGS","CAR MODELS","FRUIT","INSTRUMENTS","BUILDING PARTS","SHIPS","FURNITURE","READING MATERIALS","ELEMENTS","VEGETABLES","BODY PARTS","SPORTS","KITCHEN TOOLS","WEATHER TERMS","STATES"],"trial_type":"item-presentation","trial_index":76,"time_elapsed":1737909,"internal_node_id":"0.0-76.0","PROLIFIC ID":"6653ae434d386b6218f51efb","data_path":"experiments/cat_targ_15/cat_targ_15.h5","stimuli_path":"experiments/cat_targ_15/assets/cuefr_pool.txt","category_path":"experiments/cat_targ_15/assets/cuefr_labels.txt","subjectId":674},{"load_time":1748391.399999991,"recall_display_time":1748391.399999991,"category_cue":"BODY PARTS","recall_responses":[["t",2392],["o",165],["n",327],["g",221],["u",200],["e",478],["ENTER",324]],"recall_words":["tongue"],"recall_word_response_times":[2392],"category_target":39,"category_target_string":"TONGUE","trial_type":"free-recall","trial_index":77,"time_elapsed":1742026,"internal_node_id":"0.0-77.0","PROLIFIC ID":"6653ae434d386b6218f51efb","data_path":"experiments/cat_targ_15/cat_targ_15.h5","stimuli_path":"experiments/cat_targ_15/assets/cuefr_pool.txt","category_path":"experiments/cat_targ_15/assets/cuefr_labels.txt","subjectId":674},{"load_time":1752505,"recall_display_time":1752505.099999994,"category_cue":"","recall_responses":[["h",2170],["a",196],["i",136],["l",589],["ENTER",445],[" ",854],["s",2415],["w",251],["i",320],["m",238],["m",175],["i",171],["n",245],["g",245],["ENTER",352],["t",1875],["r",671],["o",894],["m",236],["b",418],["o",472],["n",259],["e",157],["ENTER",606],["r",1551],["o",558],["o",151],["m",547],["ENTER",514],["j",1505],["o",243],["u",227],["r",270],["n",211],["a",172],["l",791],["ENTER",751],["m",1798],["e",185],["r",166],["c",260],["u",328],["r",270],["y",150],["ENTER",592],["p",1271],["o",582],["t",171],["a",291],["t",164],["o",202],["ENTER",2254],["s",1526],["o",281],["y",428],["s",663],["a",227],["u",133],["c",373],["e",173],["ENTER",2085],["c",1804],["r",477],["u",210],["i",231],["s",121],["e",180],[" ",382],["s",316],["h",377],["i",251],["p",909],["ENTER",340],["b",3892],["l",820],["u",416],["e",250],["b",313],["e",198],["r",212],["r",143],["y",213],["ENTER",962]],"recall_words":["hail"," swimming","trombone","room","journal","mercury","potato","soysauce","cruise ship","blueberry"],"recall_word_response_times":[2170,854,1875,1551,1505,1798,1271,1526,1804,3892],"category_target":"","category_target_string":"","trial_type":"free-recall","trial_index":78,"time_elapsed":1792041,"internal_node_id":"0.0-78.0","PROLIFIC ID":"6653ae434d386b6218f51efb","data_path":"experiments/cat_targ_15/cat_targ_15.h5","stimuli_path":"experiments/cat_targ_15/assets/cuefr_pool.txt","category_path":"experiments/cat_targ_15/assets/cuefr_labels.txt","subjectId":674},{"trial_type":"call-function","trial_index":79,"time_elapsed":1792041,"internal_node_id":"0.0-79.0","PROLIFIC ID":"6653ae434d386b6218f51efb","data_path":"experiments/cat_targ_15/cat_targ_15.h5","stimuli_path":"experiments/cat_targ_15/assets/cuefr_pool.txt","category_path":"experiments/cat_targ_15/assets/cuefr_labels.txt","subjectId":674},{"view_history":[{"page_index":0,"viewing_time":28560}],"rt":28560,"trial_index":80,"trial_count":15,"message":"<p >When you're ready to proceed, press Next.</p>","trial_type":"instructions","time_elapsed":1820604,"internal_node_id":"0.0-80.0","PROLIFIC ID":"6653ae434d386b6218f51efb","data_path":"experiments/cat_targ_15/cat_targ_15.h5","stimuli_path":"experiments/cat_targ_15/assets/cuefr_pool.txt","category_path":"experiments/cat_targ_15/assets/cuefr_labels.txt","subjectId":674},{"trial_type":"call-function","trial_index":81,"time_elapsed":1820605,"internal_node_id":"0.0-81.0","PROLIFIC ID":"6653ae434d386b6218f51efb","data_path":"experiments/cat_targ_15/cat_targ_15.h5","stimuli_path":"experiments/cat_targ_15/assets/cuefr_pool.txt","category_path":"experiments/cat_targ_15/assets/cuefr_labels.txt","subjectId":674},{"load_time":1831080.399999991,"fixation_display_time":1831080.399999991,"trial_type":"fixation","trial_index":82,"time_elapsed":1821614,"internal_node_id":"0.0-82.0","PROLIFIC ID":"6653ae434d386b6218f51efb","data_path":"experiments/cat_targ_15/cat_targ_15.h5","stimuli_path":"experiments/cat_targ_15/assets/cuefr_pool.txt","category_path":"experiments/cat_targ_15/assets/cuefr_labels.txt","subjectId":674},{"load_time":1832090.799999997,"word_display_times":[1832090.799999997,1835113,1838136.899999991,1841162.599999994,1844186.599999994,1847211.099999994,1850229.200000003,1853249.700000003,1856278,1859299,1862317.599999994,1865337.899999991,1868359.299999997,1871380,1874401.899999991],"word_list":["RABBIT","ROSE","SCREWDRIVER","TAN","TIE","ORLANDO","REDWOOD","HORNET","BUSINESSPERSON","CORPORAL","CHICKEN","CHINA","GATORADE","CAVE","RAINBOW TROUT"],"category_list":["FOUR-FOOTED ANIMALS","FLOWERS","CARPENTRY TOOLS","COLORS","CLOTHES","CITIES","TREES","INSECTS","OCCUPATIONS","MILITARY TITLES","BIRDS","COUNTRIES","BEVERAGES","GEOGRAPHY TERMS","FISH"],"trial_type":"item-presentation","trial_index":83,"time_elapsed":1866950,"internal_node_id":"0.0-83.0","PROLIFIC ID":"6653ae434d386b6218f51efb","data_path":"experiments/cat_targ_15/cat_targ_15.h5","stimuli_path":"experiments/cat_targ_15/assets/cuefr_pool.txt","category_path":"experiments/cat_targ_15/assets/cuefr_labels.txt","subjectId":674},{"load_time":1877431,"recall_display_time":1877431.099999994,"category_cue":"BIRDS","recall_responses":[["c",4440],["h",156],["i",200],["c",195],["k",296],["e",166],["n",240],["ENTER",893]],"recall_words":["chicken"],"recall_word_response_times":[4440],"category_target":2,"category_target_string":"CHICKEN","trial_type":"free-recall","trial_index":84,"time_elapsed":1873544,"internal_node_id":"0.0-84.0","PROLIFIC ID":"6653ae434d386b6218f51efb","data_path":"experiments/cat_targ_15/cat_targ_15.h5","stimuli_path":"experiments/cat_targ_15/assets/cuefr_pool.txt","category_path":"experiments/cat_targ_15/assets/cuefr_labels.txt","subjectId":674},{"load_time":1884021.899999991,"recall_display_time":1884022,"category_cue":"","recall_responses":[["r",1623],["a",199],["i",153],["n",191],["b",372],["o",161],["w",245],[" ",197],["t",201],["r",180],["o",42],["u",202],["t",692],[" ",671],["r",354],["e",130],["d",425],["w",347],["o",218],["o",187],["backspace",810],["backspace",780],["backspace",215],["backspace",177],["backspace",165],["backspace",502],["ENTER",641],["r",416],["e",120],["d",349],["w",392],["o",260],["o",145],["d",134],["ENTER",789],["r",553],["o",833],["s",115],["e",222],["ENTER",365],["r",463],["a",206],["b",437],["b",151],["i",286],["t",169],[" ",231],["ENTER",1725],["s",358],["c",512],["r",206],["e",196],["w",729],["d",310],["r",211],["i",498],["v",220],["e",175],["r",115],["ENTER",828],["t",484],["a",291],["n",140],["ENTER",1098],["t",443],["i",155],["e",166],["ENTER",773],[" ",1862],["c",2980],["h",144],["i",222],["n",287],["a",165],["ENTER",904]],"recall_words":["rainbow trout ","redwood","rose","rabbit ","screwdriver","tan","tie"," china"],"recall_word_response_times":[1623,416,553,463,358,484,443,1862],"category_target":"","category_target_string":"","trial_type":"free-recall","trial_index":85,"time_elapsed":1923561,"internal_node_id":"0.0-85.0","PROLIFIC ID":"6653ae434d386b6218f51efb","data_path":"experiments/cat_targ_15/cat_targ_15.h5","stimuli_path":"experiments/cat_targ_15/assets/cuefr_pool.txt","category_path":"experiments/cat_targ_15/assets/cuefr_labels.txt","subjectId":674},{"trial_type":"call-function","trial_index":86,"time_elapsed":1923562,"internal_node_id":"0.0-86.0","PROLIFIC ID":"6653ae434d386b6218f51efb","data_path":"experiments/cat_targ_15/cat_targ_15.h5","stimuli_path":"experiments/cat_targ_15/assets/cuefr_pool.txt","category_path":"experiments/cat_targ_15/assets/cuefr_labels.txt","subjectId":674},{"view_history":[{"page_index":0,"viewing_time":19232}],"rt":19232,"trial_index":87,"trial_count":15,"message":"<p >When you're ready to proceed, press Next.</p>","trial_type":"instructions","time_elapsed":1942795,"internal_node_id":"0.0-87.0","PROLIFIC ID":"6653ae434d386b6218f51efb","data_path":"experiments/cat_targ_15/cat_targ_15.h5","stimuli_path":"experiments/cat_targ_15/assets/cuefr_pool.txt","category_path":"experiments/cat_targ_15/assets/cuefr_labels.txt","subjectId":674},{"trial_type":"call-function","trial_index":88,"time_elapsed":1942795,"internal_node_id":"0.0-88.0","PROLIFIC ID":"6653ae434d386b6218f51efb","data_path":"experiments/cat_targ_15/cat_targ_15.h5","stimuli_path":"experiments/cat_targ_15/assets/cuefr_pool.txt","category_path":"experiments/cat_targ_15/assets/cuefr_labels.txt","subjectId":674},{"load_time":1953270.599999994,"fixation_display_time":1953270.599999994,"trial_type":"fixation","trial_index":89,"time_elapsed":1943804,"internal_node_id":"0.0-89.0","PROLIFIC ID":"6653ae434d386b6218f51efb","data_path":"experiments/cat_targ_15/cat_targ_15.h5","stimuli_path":"experiments/cat_targ_15/assets/cuefr_pool.txt","category_path":"experiments/cat_targ_15/assets/cuefr_labels.txt","subjectId":674},{"load_time":1954281,"word_display_times":[1954281,1957304.599999994,1960322,1963341.799999997,1966363.5,1969384.099999994,1972408.599999994,1975425.899999991,1978451.099999994,1981471.599999994,1984494.899999991,1987516.700000003,1990540.099999994,1993564.599999994,1996586.599999994],"word_list":["CARBON","SNOW","CARGO SHIP","OKLAHOMA","LAMP","ROOF","PERIODICAL","WHISK","CASTLE","CLOTH","VOLKSWAGEN","FIELD HOCKEY","PICCOLO","KIWI","KNEE"],"category_list":["ELEMENTS","WEATHER TERMS","SHIPS","STATES","FURNITURE","BUILDING PARTS","READING MATERIALS","KITCHEN TOOLS","DWELLINGS","FABRICS","CAR MODELS","SPORTS","INSTRUMENTS","FRUIT","BODY PARTS"],"trial_type":"item-presentation","trial_index":90,"time_elapsed":1989134,"internal_node_id":"0.0-90.0","PROLIFIC ID":"6653ae434d386b6218f51efb","data_path":"experiments/cat_targ_15/cat_targ_15.h5","stimuli_path":"experiments/cat_targ_15/assets/cuefr_pool.txt","category_path":"experiments/cat_targ_15/assets/cuefr_labels.txt","subjectId":674},{"load_time":1999615.799999997,"recall_display_time":1999615.799999997,"category_cue":"FURNITURE","recall_responses":[["l",6284],["a",249],["m",166],["p",323],["ENTER",896]],"recall_words":["lamp"],"recall_word_response_times":[6284],"category_target":285,"category_target_string":"LAMP","trial_type":"free-recall","trial_index":91,"time_elapsed":1997060,"internal_node_id":"0.0-91.0","PROLIFIC ID":"6653ae434d386b6218f51efb","data_path":"experiments/cat_targ_15/cat_targ_15.h5","stimuli_path":"experiments/cat_targ_15/assets/cuefr_pool.txt","category_path":"experiments/cat_targ_15/assets/cuefr_labels.txt","subjectId":674},{"load_time":2007538.200000003,"recall_display_time":2007538.200000003,"category_cue":"","recall_responses":[["k",2007],["n",205],["e",266],["e",161],["ENTER",261],[" ",476],["p",1068],["i",247],["c",1271],["c",1903],["o",1026],["l",511],["o",276],["ENTER",415],["c",1688],["r",296],["b",430],["o",131],["n",181],[" ",232],["ENTER",968],["w",403],["h",306],["i",226],["s",623],["k",355],["ENTER",431],["f",3848],["i",304],["e",197],["l",166],["d",155],[" ",392],["h",206],["o",285],["c",955],["k",145],["e",787],["y",130],["ENTER",673],["c",1415],["a",262],["s",900],["t",489],["l",333],["e",206],[" ",427],["ENTER",2822],["o",3174],["k",291],["l",311],["a",342],["h",581],["o",240],["m",257],["a",458],["ENTER",414],["p",6212],["e",176],["r",175],["i",183],["o",839],["d",164],["i",116],["c",175],["a",181],["l",204],[" ",658],["c",1172],["ENTER",1503],["c",453],["a",204]],"recall_words":["knee"," piccolo","crbon ","whisk","field hockey","castle ","oklahoma","periodical c","ca"],"recall_word_response_times":[2007,476,1688,403,3848,1415,3174,6212,453,0],"category_target":"","category_target_string":"","trial_type":"free-recall","trial_index":92,"time_elapsed":2047079,"internal_node_id":"0.0-92.0","PROLIFIC ID":"6653ae434d386b6218f51efb","data_path":"experiments/cat_targ_15/cat_targ_15.h5","stimuli_path":"experiments/cat_targ_15/assets/cuefr_pool.txt","category_path":"experiments/cat_targ_15/assets/cuefr_labels.txt","subjectId":674},{"trial_type":"call-function","trial_index":93,"time_elapsed":2047079,"internal_node_id":"0.0-93.0","PROLIFIC ID":"6653ae434d386b6218f51efb","data_path":"experiments/cat_targ_15/cat_targ_15.h5","stimuli_path":"experiments/cat_targ_15/assets/cuefr_pool.txt","category_path":"experiments/cat_targ_15/assets/cuefr_labels.txt","subjectId":674},{"view_history":[{"page_index":0,"viewing_time":32560}],"rt":32561,"trial_index":94,"trial_count":15,"message":"<p >When you're ready to proceed, press Next.</p>","trial_type":"instructions","time_elapsed":2079641,"internal_node_id":"0.0-94.0","PROLIFIC ID":"6653ae434d386b6218f51efb","data_path":"experiments/cat_targ_15/cat_targ_15.h5","stimuli_path":"experiments/cat_targ_15/assets/cuefr_pool.txt","category_path":"experiments/cat_targ_15/assets/cuefr_labels.txt","subjectId":674},{"trial_type":"call-function","trial_index":95,"time_elapsed":2079641,"internal_node_id":"0.0-95.0","PROLIFIC ID":"6653ae434d386b6218f51efb","data_path":"experiments/cat_targ_15/cat_targ_15.h5","stimuli_path":"experiments/cat_targ_15/assets/cuefr_pool.txt","category_path":"experiments/cat_targ_15/assets/cuefr_labels.txt","subjectId":674},{"load_time":2090116.399999991,"fixation_display_time":2090116.399999991,"trial_type":"fixation","trial_index":96,"time_elapsed":2080650,"internal_node_id":"0.0-96.0","PROLIFIC ID":"6653ae434d386b6218f51efb","data_path":"experiments/cat_targ_15/cat_targ_15.h5","stimuli_path":"experiments/cat_targ_15/assets/cuefr_pool.txt","category_path":"experiments/cat_targ_15/assets/cuefr_labels.txt","subjectId":674},{"load_time":2091127.299999997,"word_display_times":[2091127.299999997,2094142.700000003,2097166.200000003,2100185.5,2103211.200000003,2106233.700000003,2109255.200000003,2112277.299999997,2115296.799999997,2118307.5,2121321.700000003,2124345.200000003,2127374.5,2130394,2133419.299999997],"word_list":["MAUVE","CATERPILLAR","JUICE","CLIFF","PETUNIA","BEETS","SYCAMORE","SAN DIEGO","RAVEN","MARLIN","PSYCHOLOGIST","GARLIC","SERGEANT","GOAT","ARGENTINA"],"category_list":["COLORS","INSECTS","BEVERAGES","GEOGRAPHY TERMS","FLOWERS","VEGETABLES","TREES","CITIES","BIRDS","FISH","OCCUPATIONS","SEASONINGS","MILITARY TITLES","FOUR-FOOTED ANIMALS","COUNTRIES"],"trial_type":"item-presentation","trial_index":97,"time_elapsed":2125965,"internal_node_id":"0.0-97.0","PROLIFIC ID":"6653ae434d386b6218f51efb","data_path":"experiments/cat_targ_15/cat_targ_15.h5","stimuli_path":"experiments/cat_targ_15/assets/cuefr_pool.txt","category_path":"experiments/cat_targ_15/assets/cuefr_labels.txt","subjectId":674},{"load_time":2136446,"recall_display_time":2136446,"category_cue":"INSECTS","recall_responses":[["c",5272],["a",517],["t",577],["e",403],["r",155],["p",533],["i",297],["l",304],["l",181],["a",109],["r",180],["ENTER",768]],"recall_words":["caterpillar"],"recall_word_response_times":[5272],"category_target":313,"category_target_string":"CATERPILLAR","trial_type":"free-recall","trial_index":98,"time_elapsed":2135270,"internal_node_id":"0.0-98.0","PROLIFIC ID":"6653ae434d386b6218f51efb","data_path":"experiments/cat_targ_15/cat_targ_15.h5","stimuli_path":"experiments/cat_targ_15/assets/cuefr_pool.txt","category_path":"experiments/cat_targ_15/assets/cuefr_labels.txt","subjectId":674},{"load_time":2145747.700000003,"recall_display_time":2145747.700000003,"category_cue":"","recall_responses":[["m",1334],["a",186],["u",174],["v",874],["e",191],["ENTER",1033],["s",1256],["a",235],["n",165],["d",227],["i",477],["e",190],["g",393],["o",356],["ENTER",460],["c",794],["l",216],["i",225],["f",342],["f",155],["ENTER",587],[" ",930],["r",1009],["a",216],["v",246],["e",190],["n",256],["ENTER",677],["s",1289],["e",212],["r",225],["g",362],["e",156],["a",211],["n",332],["t",230],["ENTER",356],["j",2080],["u",185],["c",200],["e",1205],["backspace",756],["backspace",171],["i",898],["c",188],["e",203],["ENTER",436],["c",2475],["backspace",1974],["s",1049],["s",49],["y",287],["c",687],["a",172],["m",224],["o",261],["r",191],["e",39],["ENTER",517],["b",1095],["e",201],["e",118],["e",165],["backspace",967],["t",341],["s",448],["ENTER",371],["m",4590],["a",176],["r",322],["l",420],["i",257],["n",206],["ENTER",2368],[" ",432],["g",177],["a",205],["r",458],["l",159],["i",207],["c",174],["ENTER",643],["p",2488],["e",147],["t",463],["u",231],["n",230],["i",222],["a",174],["ENTER",326]],"recall_words":["mauve","sandiego","cliff"," raven","sergeant","juice","ssycamore","beets","marlin"," garlic","petunia"],"recall_word_response_times":[1334,1256,794,930,1289,2080,2475,1095,4590,432,2488],"category_target":"","category_target_string":"","trial_type":"free-recall","trial_index":99,"time_elapsed":2185281,"internal_node_id":"0.0-99.0","PROLIFIC ID":"6653ae434d386b6218f51efb","data_path":"experiments/cat_targ_15/cat_targ_15.h5","stimuli_path":"experiments/cat_targ_15/assets/cuefr_pool.txt","category_path":"experiments/cat_targ_15/assets/cuefr_labels.txt","subjectId":674},{"trial_type":"call-function","trial_index":100,"time_elapsed":2185281,"internal_node_id":"0.0-100.0","PROLIFIC ID":"6653ae434d386b6218f51efb","data_path":"experiments/cat_targ_15/cat_targ_15.h5","stimuli_path":"experiments/cat_targ_15/assets/cuefr_pool.txt","category_path":"experiments/cat_targ_15/assets/cuefr_labels.txt","subjectId":674},{"view_history":[{"page_index":0,"viewing_time":5425}],"rt":5425,"trial_index":101,"trial_count":15,"message":"<p >When you're ready to proceed, press Next.</p>","trial_type":"instructions","time_elapsed":2190708,"internal_node_id":"0.0-101.0","PROLIFIC ID":"6653ae434d386b6218f51efb","data_path":"experiments/cat_targ_15/cat_targ_15.h5","stimuli_path":"experiments/cat_targ_15/assets/cuefr_pool.txt","category_path":"experiments/cat_targ_15/assets/cuefr_labels.txt","subjectId":674},{"trial_type":"call-function","trial_index":102,"time_elapsed":2190708,"internal_node_id":"0.0-102.0","PROLIFIC ID":"6653ae434d386b6218f51efb","data_path":"experiments/cat_targ_15/cat_targ_15.h5","stimuli_path":"experiments/cat_targ_15/assets/cuefr_pool.txt","category_path":"experiments/cat_targ_15/assets/cuefr_labels.txt","subjectId":674},{"load_time":2201183.599999994,"fixation_display_time":2201183.599999994,"trial_type":"fixation","trial_index":103,"time_elapsed":2191713,"internal_node_id":"0.0-103.0","PROLIFIC ID":"6653ae434d386b6218f51efb","data_path":"experiments/cat_targ_15/cat_targ_15.h5","stimuli_path":"experiments/cat_targ_15/assets/cuefr_pool.txt","category_path":"experiments/cat_targ_15/assets/cuefr_labels.txt","subjectId":674},{"load_time":2202189.299999997,"word_display_times":[2202189.299999997,2205210.899999991,2208228,2211247.5,2214267.399999991,2217289.299999997,2220308.099999994,2223326.399999991,2226351.5,2229376.299999997,2232399.299999997,2235423.899999991,2238451.099999994,2241467.399999991,2244491.299999997],"word_list":["TOASTER","T-SHIRT","KAYAK","CYMBAL","GRAPEFRUIT","MASSACHUSETTS","SCREW","CIVIC","TYPHOON","BONE","GYMNASTICS","NEON","BATHROOM","TEPEE","FUTON"],"category_list":["KITCHEN TOOLS","CLOTHES","SHIPS","INSTRUMENTS","FRUIT","STATES","CARPENTRY TOOLS","CAR MODELS","WEATHER TERMS","BODY PARTS","SPORTS","ELEMENTS","BUILDING PARTS","DWELLINGS","FURNITURE"],"trial_type":"item-presentation","trial_index":104,"time_elapsed":2237034,"internal_node_id":"0.0-104.0","PROLIFIC ID":"6653ae434d386b6218f51efb","data_path":"experiments/cat_targ_15/cat_targ_15.h5","stimuli_path":"experiments/cat_targ_15/assets/cuefr_pool.txt","category_path":"experiments/cat_targ_15/assets/cuefr_labels.txt","subjectId":674},{"load_time":2247515.399999991,"recall_display_time":2247515.5,"category_cue":"CAR MODELS","recall_responses":[],"recall_words":[],"recall_word_response_times":[],"category_target":62,"category_target_string":"CIVIC","trial_type":"free-recall","trial_index":105,"time_elapsed":2247055,"internal_node_id":"0.0-105.0","PROLIFIC ID":"6653ae434d386b6218f51efb","data_path":"experiments/cat_targ_15/cat_targ_15.h5","stimuli_path":"experiments/cat_targ_15/assets/cuefr_pool.txt","category_path":"experiments/cat_targ_15/assets/cuefr_labels.txt","subjectId":674},{"load_time":2257536.099999994,"recall_display_time":2257536.099999994,"category_cue":"","recall_responses":[["k",1627],["a",346],["y",264],["a",298],["k",626],["ENTER",641],["f",835],["u",229],["t",277],["o",276],["n",1245],["ENTER",627],["c",3906],["y",390],["m",419],["b",392],["a",281],["l",1045],["s",203],["ENTER",452],["m",1427],["a",191],["s",295],["a",353],["backspace",764],["s",967],["a",498],["c",249],["h",543],["u",240],["s",332],["e",356],["t",290],["t",167],["s",347],["ENTER",571],["s",3110],["c",595],["r",226],["e",225],["w",423],["ENTER",742],["t",921],["y",224],["p",406],["h",314],["o",311],["o",209],["n",277],["ENTER",637],["a",17927],["r",324],["g",221],["e",171],["n",484],["t",184]],"recall_words":["kayak","futon","cymbals","massachusetts","screw","typhoon","argent"],"recall_word_response_times":[1627,835,3906,1427,3110,921,17927,0],"category_target":"","category_target_string":"","trial_type":"free-recall","trial_index":106,"time_elapsed":2297066,"internal_node_id":"0.0-106.0","PROLIFIC ID":"6653ae434d386b6218f51efb","data_path":"experiments/cat_targ_15/cat_targ_15.h5","stimuli_path":"experiments/cat_targ_15/assets/cuefr_pool.txt","category_path":"experiments/cat_targ_15/assets/cuefr_labels.txt","subjectId":674},{"trial_type":"call-function","trial_index":107,"time_elapsed":2297066,"internal_node_id":"0.0-107.0","PROLIFIC ID":"6653ae434d386b6218f51efb","data_path":"experiments/cat_targ_15/cat_targ_15.h5","stimuli_path":"experiments/cat_targ_15/assets/cuefr_pool.txt","category_path":"experiments/cat_targ_15/assets/cuefr_labels.txt","subjectId":674},{"view_history":[{"page_index":0,"viewing_time":10821}],"rt":10822,"trial_index":108,"trial_count":15,"message":"<p >You have completed the experiment. Thank you for your participation!</p>","trial_type":"instructions","time_elapsed":2307890,"internal_node_id":"0.0-108.0","PROLIFIC ID":"6653ae434d386b6218f51efb","data_path":"experiments/cat_targ_15/cat_targ_15.h5","stimuli_path":"experiments/cat_targ_15/assets/cuefr_pool.txt","category_path":"experiments/cat_targ_15/assets/cuefr_labels.txt","subjectId":674},{"rt":null,"stimulus":"You've completed the experiment! Your total performance bonus is $5.375. Click \"SUBMIT\" or wait five seconds to complete the experiment and confirm your bonus. Make sure you proceed to the next page to ensure your bonus is recorded.","response":null,"bonus":5.375,"trial_type":"html-button-response","trial_index":109,"time_elapsed":2312910,"internal_node_id":"0.0-109.0","PROLIFIC ID":"6653ae434d386b6218f51efb","data_path":"experiments/cat_targ_15/cat_targ_15.h5","stimuli_path":"experiments/cat_targ_15/assets/cuefr_pool.txt","category_path":"experiments/cat_targ_15/assets/cuefr_labels.txt","subjectId":674}]
