[{"success":true,"rt":1795,"trial_type":"fullscreen","trial_index":0,"time_elapsed":2804,"internal_node_id":"0.0-0.0","data_path":"experiments/category_targeting/cuefr.h5","stimuli_path":"experiments/category_targeting/assets/cuefr_pool.txt","category_path":"experiments/category_targeting/assets/cuefr_labels.txt","subjectId":0},{"view_history":[{"page_index":0,"viewing_time":37546},{"page_index":1,"viewing_time":13360},{"page_index":2,"viewing_time":13064},{"page_index":3,"viewing_time":24600},{"page_index":4,"viewing_time":12464},{"page_index":5,"viewing_time":9016},{"page_index":6,"viewing_time":5296}],"rt":115347,"trial_type":"instructions","trial_index":1,"time_elapsed":118174,"internal_node_id":"0.0-1.0","data_path":"experiments/category_targeting/cuefr.h5","stimuli_path":"experiments/category_targeting/assets/cuefr_pool.txt","category_path":"experiments/category_targeting/assets/cuefr_labels.txt","subjectId":0},{"view_history":[{"page_index":0,"viewing_time":146448}],"rt":146448,"trial_type":"instructions","trial_index":2,"time_elapsed":264626,"internal_node_id":"0.0-2.0","data_path":"experiments/category_targeting/cuefr.h5","stimuli_path":"experiments/category_targeting/assets/cuefr_pool.txt","category_path":"experiments/category_targeting/assets/cuefr_labels.txt","subjectId":0},{"trial_type":"call-function","trial_index":3,"time_elapsed":264627,"internal_node_id":"0.0-3.0","data_path":"experiments/category_targeting/cuefr.h5","stimuli_path":"experiments/category_targeting/assets/cuefr_pool.txt","category_path":"experiments/category_targeting/assets/cuefr_labels.txt","subjectId":0},{"trial_type":"call-function","trial_index":4,"time_elapsed":264627,"internal_node_id":"0.0-4.0","data_path":"experiments/category_targeting/cuefr.h5","stimuli_path":"experiments/category_targeting/assets/cuefr_pool.txt","category_path":"experiments/category_targeting/assets/cuefr_labels.txt","subjectId":0},{"load_time":268778.19999980927,"fixation_display_time":268778.19999980927,"trial_type":"fixation","trial_index":5,"time_elapsed":265639,"internal_node_id":"0.0-5.0","data_path":"experiments/category_targeting/cuefr.h5","stimuli_path":"experiments/category_targeting/assets/cuefr_pool.txt","category_path":"experiments/category_targeting/assets/cuefr_labels.txt","subjectId":0},{"load_time":269790.19999980927,"word_display_times":[269790.19999980927,272803.0999994278,275817.0999994278,278838.0999994278,281851.19999980927,284869.79999923706,287883.39999961853,290901.69999980927,293915.0999994278,296931.89999961853,299947.19999980927,302963.19999980927,305979.0999994278,308997.79999923706,312005.69999980927,315019.0999994278],"word_list":["SEQUOIA","FLOUNDER","CRIMSON","LOVESEAT","NECK","SULFUR","LEMON","RACQUETBALL","CORN","BLIZZARD","STOVE","CLARINET","PLAIN","VEST","SOY SAUCE","BUNGALOW"],"category_list":["TREES","FISH","COLORS","FURNITURE","BODY PARTS","ELEMENTS","FRUIT","SPORTS","VEGETABLES","WEATHER TERMS","KITCHEN TOOLS","INSTRUMENTS","GEOGRAPHY TERMS","CLOTHES","SEASONINGS","DWELLINGS"],"trial_type":"item-presentation","trial_index":6,"time_elapsed":313887,"internal_node_id":"0.0-6.0","data_path":"experiments/category_targeting/cuefr.h5","stimuli_path":"experiments/category_targeting/assets/cuefr_pool.txt","category_path":"experiments/category_targeting/assets/cuefr_labels.txt","subjectId":0},{"load_time":318042.5999994278,"recall_display_time":318042.69999980927,"category_cue":"KITCHEN TOOLS","recall_responses":[["s",3941],["t",495],["o",120],["v",424],["e",248],["ENTER",1144]],"recall_words":["stove"],"recall_word_response_times":[3941],"category_target":348,"category_target_string":"STOVE","trial_type":"free-recall","trial_index":7,"time_elapsed":320267,"internal_node_id":"0.0-7.0","data_path":"experiments/category_targeting/cuefr.h5","stimuli_path":"experiments/category_targeting/assets/cuefr_pool.txt","category_path":"experiments/category_targeting/assets/cuefr_labels.txt","subjectId":0},{"load_time":324417.79999923706,"recall_display_time":324417.79999923706,"category_cue":"","recall_responses":[["s",3781],["e",320],["q",272],["o",1000],["u",624],["i",184],["a",1384],["ENTER",680]],"recall_words":["seqouia"],"recall_word_response_times":[3781],"category_target":0,"category_target_string":"","trial_type":"free-recall","trial_index":8,"time_elapsed":328515,"internal_node_id":"0.0-8.0","data_path":"experiments/category_targeting/cuefr.h5","stimuli_path":"experiments/category_targeting/assets/cuefr_pool.txt","category_path":"experiments/category_targeting/assets/cuefr_labels.txt","subjectId":0},{"load_time":332665.19999980927,"recall_display_time":332665.19999980927,"category_cue":"BODY PARTS","recall_responses":[["n",1758],["e",104],["c",256],["k",120],["ENTER",488]],"recall_words":["neck"],"recall_word_response_times":[1758],"category_target":34,"category_target_string":"NECK","trial_type":"free-recall","trial_index":9,"time_elapsed":331243,"internal_node_id":"0.0-9.0","data_path":"experiments/category_targeting/cuefr.h5","stimuli_path":"experiments/category_targeting/assets/cuefr_pool.txt","category_path":"experiments/category_targeting/assets/cuefr_labels.txt","subjectId":0},{"load_time":335393.0999994278,"recall_display_time":335393.19999980927,"category_cue":"","recall_responses":[["s",3646],["u",136],["l",240],["f",128],["u",144],["r",968],["ENTER",512]],"recall_words":["sulfur"],"recall_word_response_times":[3646],"category_target":0,"category_target_string":"","trial_type":"free-recall","trial_index":10,"time_elapsed":337019,"internal_node_id":"0.0-10.0","data_path":"experiments/category_targeting/cuefr.h5","stimuli_path":"experiments/category_targeting/assets/cuefr_pool.txt","category_path":"experiments/category_targeting/assets/cuefr_labels.txt","subjectId":0},{"load_time":341169,"recall_display_time":341169,"category_cue":"SPORTS","recall_responses":[["r",1078],["a",376],["q",224],["u",176],["e",136],["t",168],["b",248],["a",136],["l",568],["l",144],["ENTER",416]],"recall_words":["raquetball"],"recall_word_response_times":[1078],"category_target":430,"category_target_string":"RACQUETBALL","trial_type":"free-recall","trial_index":11,"time_elapsed":340691,"internal_node_id":"0.0-11.0","data_path":"experiments/category_targeting/cuefr.h5","stimuli_path":"experiments/category_targeting/assets/cuefr_pool.txt","category_path":"experiments/category_targeting/assets/cuefr_labels.txt","subjectId":0},{"load_time":344841,"recall_display_time":344841.0999994278,"category_cue":"","recall_responses":[["s",4142],["o",240],["y",248],[" ",752],["s",224],["a",704],["u",232],["c",152],["e",200],["ENTER",448]],"recall_words":["soy sauce"],"recall_word_response_times":[4142],"category_target":0,"category_target_string":"","trial_type":"free-recall","trial_index":12,"time_elapsed":348036,"internal_node_id":"0.0-12.0","data_path":"experiments/category_targeting/cuefr.h5","stimuli_path":"experiments/category_targeting/assets/cuefr_pool.txt","category_path":"experiments/category_targeting/assets/cuefr_labels.txt","subjectId":0},{"trial_type":"call-function","trial_index":13,"time_elapsed":348036,"internal_node_id":"0.0-13.0","data_path":"experiments/category_targeting/cuefr.h5","stimuli_path":"experiments/category_targeting/assets/cuefr_pool.txt","category_path":"experiments/category_targeting/assets/cuefr_labels.txt","subjectId":0},{"view_history":[{"page_index":0,"viewing_time":144709}],"rt":144709,"trial_index":14,"trial_count":20,"message":"<p >You've completed the practice trial! Please check in with the experimenter before proceeding to the next trial.</p>","trial_type":"instructions","time_elapsed":492753,"internal_node_id":"0.0-14.0","data_path":"experiments/category_targeting/cuefr.h5","stimuli_path":"experiments/category_targeting/assets/cuefr_pool.txt","category_path":"experiments/category_targeting/assets/cuefr_labels.txt","subjectId":0},{"trial_type":"call-function","trial_index":15,"time_elapsed":492753,"internal_node_id":"0.0-15.0","data_path":"experiments/category_targeting/cuefr.h5","stimuli_path":"experiments/category_targeting/assets/cuefr_pool.txt","category_path":"experiments/category_targeting/assets/cuefr_labels.txt","subjectId":0},{"load_time":496896.5999994278,"fixation_display_time":496896.5999994278,"trial_type":"fixation","trial_index":16,"time_elapsed":493766,"internal_node_id":"0.0-16.0","data_path":"experiments/category_targeting/cuefr.h5","stimuli_path":"experiments/category_targeting/assets/cuefr_pool.txt","category_path":"experiments/category_targeting/assets/cuefr_labels.txt","subjectId":0},{"load_time":497910.89999961853,"word_display_times":[497910.89999961853,500923.39999961853,503941.79999923706,506955.19999980927,509961.69999980927,512981.89999961853,515995.29999923706,519013.89999961853,522027.0999994278,525044.0999994278,528058.8999996185,531077.7999992371,534091.0999994278,537107.8999996185,540123.0999994278,543140],"word_list":["TAPE MEASURE","HORNET","MISSISSIPPI","RALEIGH","SHEEP","PARAKEET","ENCYCLOPEDIA","SCIENTIST","CRUISE SHIP","DENIM","BRAZIL","ACURA","OFFICE","LITHIUM","BROCCOLI","NIGHTSTAND"],"category_list":["CARPENTRY TOOLS","INSECTS","STATES","CITIES","FOUR-FOOTED ANIMALS","BIRDS","READING MATERIALS","OCCUPATIONS","SHIPS","FABRICS","COUNTRIES","CAR MODELS","BUILDING PARTS","ELEMENTS","VEGETABLES","FURNITURE"],"trial_type":"item-presentation","trial_index":17,"time_elapsed":542013,"internal_node_id":"0.0-17.0","data_path":"experiments/category_targeting/cuefr.h5","stimuli_path":"experiments/category_targeting/assets/cuefr_pool.txt","category_path":"experiments/category_targeting/assets/cuefr_labels.txt","subjectId":0},{"load_time":546161.5999994278,"recall_display_time":546161.6999998093,"category_cue":"OCCUPATIONS","recall_responses":[["w",6726],["o",120],["r",456],["k",112],["e",176],["r",208],["ENTER",600]],"recall_words":["worker"],"recall_word_response_times":[6726],"category_target":367,"category_target_string":"SCIENTIST","trial_type":"free-recall","trial_index":18,"time_elapsed":550418,"internal_node_id":"0.0-18.0","data_path":"experiments/category_targeting/cuefr.h5","stimuli_path":"experiments/category_targeting/assets/cuefr_pool.txt","category_path":"experiments/category_targeting/assets/cuefr_labels.txt","subjectId":0},{"load_time":554561.0999994278,"recall_display_time":554561.1999998093,"category_cue":"","recall_responses":[["s",9134],["backspace",680],["a",152],["c",288],["c",160],["u",88],["r",136],["a",344],["ENTER",360]],"recall_words":["accura"],"recall_word_response_times":[9134],"category_target":0,"category_target_string":"","trial_type":"free-recall","trial_index":19,"time_elapsed":561762,"internal_node_id":"0.0-19.0","data_path":"experiments/category_targeting/cuefr.h5","stimuli_path":"experiments/category_targeting/assets/cuefr_pool.txt","category_path":"experiments/category_targeting/assets/cuefr_labels.txt","subjectId":0},{"load_time":565905.0999994278,"recall_display_time":565905.0999994278,"category_cue":"COUNTRIES","recall_responses":[["b",1318],["r",96],["a",304],["z",248],["i",176],["l",176],["ENTER",632]],"recall_words":["brazil"],"recall_word_response_times":[1318],"category_target":146,"category_target_string":"BRAZIL","trial_type":"free-recall","trial_index":20,"time_elapsed":564714,"internal_node_id":"0.0-20.0","data_path":"experiments/category_targeting/cuefr.h5","stimuli_path":"experiments/category_targeting/assets/cuefr_pool.txt","category_path":"experiments/category_targeting/assets/cuefr_labels.txt","subjectId":0},{"load_time":568857,"recall_display_time":568857,"category_cue":"","recall_responses":[["b",3486],["r",136],["o",128],["c",152],["c",192],["o",128],["l",608],["i",176],["ENTER",992]],"recall_words":["broccoli"],"recall_word_response_times":[3486],"category_target":0,"category_target_string":"","trial_type":"free-recall","trial_index":21,"time_elapsed":570714,"internal_node_id":"0.0-21.0","data_path":"experiments/category_targeting/cuefr.h5","stimuli_path":"experiments/category_targeting/assets/cuefr_pool.txt","category_path":"experiments/category_targeting/assets/cuefr_labels.txt","subjectId":0},{"load_time":574856.8999996185,"recall_display_time":574857,"category_cue":"FOUR-FOOTED ANIMALS","recall_responses":[["s",1214],["h",280],["e",120],["e",168],["p",120],["ENTER",648]],"recall_words":["sheep"],"recall_word_response_times":[1214],"category_target":251,"category_target_string":"SHEEP","trial_type":"free-recall","trial_index":22,"time_elapsed":573267,"internal_node_id":"0.0-22.0","data_path":"experiments/category_targeting/cuefr.h5","stimuli_path":"experiments/category_targeting/assets/cuefr_pool.txt","category_path":"experiments/category_targeting/assets/cuefr_labels.txt","subjectId":0},{"load_time":577409,"recall_display_time":577409,"category_cue":"","recall_responses":[["s",12886],["h",64],["e",216],["e",208],["p",248],["ENTER",376]],"recall_words":["sheep"],"recall_word_response_times":[12886],"category_target":0,"category_target_string":"","trial_type":"free-recall","trial_index":23,"time_elapsed":587267,"internal_node_id":"0.0-23.0","data_path":"experiments/category_targeting/cuefr.h5","stimuli_path":"experiments/category_targeting/assets/cuefr_pool.txt","category_path":"experiments/category_targeting/assets/cuefr_labels.txt","subjectId":0},{"trial_type":"call-function","trial_index":24,"time_elapsed":587267,"internal_node_id":"0.0-24.0","data_path":"experiments/category_targeting/cuefr.h5","stimuli_path":"experiments/category_targeting/assets/cuefr_pool.txt","category_path":"experiments/category_targeting/assets/cuefr_labels.txt","subjectId":0},{"view_history":[{"page_index":0,"viewing_time":11231}],"rt":11231,"trial_index":25,"trial_count":20,"message":"<p >When you're ready for the next trial, press Next.</p>","trial_type":"instructions","time_elapsed":598499,"internal_node_id":"0.0-25.0","data_path":"experiments/category_targeting/cuefr.h5","stimuli_path":"experiments/category_targeting/assets/cuefr_pool.txt","category_path":"experiments/category_targeting/assets/cuefr_labels.txt","subjectId":0},{"trial_type":"call-function","trial_index":26,"time_elapsed":598500,"internal_node_id":"0.0-26.0","data_path":"experiments/category_targeting/cuefr.h5","stimuli_path":"experiments/category_targeting/assets/cuefr_pool.txt","category_path":"experiments/category_targeting/assets/cuefr_labels.txt","subjectId":0},{"load_time":602640,"fixation_display_time":602640,"trial_type":"fixation","trial_index":27,"time_elapsed":599503,"internal_node_id":"0.0-27.0","data_path":"experiments/category_targeting/cuefr.h5","stimuli_path":"experiments/category_targeting/assets/cuefr_pool.txt","category_path":"experiments/category_targeting/assets/cuefr_labels.txt","subjectId":0},{"load_time":603644.0999994278,"word_display_times":[603644.0999994278,606661.7999992371,609675.1999998093,612691.8999996185,615707.0999994278,618725.7999992371,621739.0999994278,624757.7999992371,627771.0999994278,630787.7999992371,633801.2999992371,636819.7999992371,639835.0999994278,642851.8999996185,645867.0999994278,648883.8999996185],"word_list":["STREAM","PEAR","HOT SAUCE","TENT","TRACK","BANJO","THIGH","FIR","SNAPPER","SCARF","CLOUDS","WHISK","TAN","MOTH","BUSINESSPERSON","BORON"],"category_list":["GEOGRAPHY TERMS","FRUIT","SEASONINGS","DWELLINGS","SPORTS","INSTRUMENTS","BODY PARTS","TREES","FISH","CLOTHES","WEATHER TERMS","KITCHEN TOOLS","COLORS","INSECTS","OCCUPATIONS","ELEMENTS"],"trial_type":"item-presentation","trial_index":28,"time_elapsed":647761,"internal_node_id":"0.0-28.0","data_path":"experiments/category_targeting/cuefr.h5","stimuli_path":"experiments/category_targeting/assets/cuefr_pool.txt","category_path":"experiments/category_targeting/assets/cuefr_labels.txt","subjectId":0},{"load_time":651905.8999996185,"recall_display_time":651905.8999996185,"category_cue":"","recall_responses":[["b",3749],["u",192],["s",136],["i",288],["n",256],["e",176],["s",240],["s",184],["p",464],["e",144],["r",152],["s",216],["o",104],["n",192],["ENTER",680]],"recall_words":["businessperson"],"recall_word_response_times":[3749],"category_target":0,"category_target_string":"","trial_type":"free-recall","trial_index":29,"time_elapsed":654941,"internal_node_id":"0.0-29.0","data_path":"experiments/category_targeting/cuefr.h5","stimuli_path":"experiments/category_targeting/assets/cuefr_pool.txt","category_path":"experiments/category_targeting/assets/cuefr_labels.txt","subjectId":0},{"load_time":659080.7999992371,"recall_display_time":659080.8999996185,"category_cue":"","recall_responses":[["b",1534],["o",304],["r",136],["m",144],["backspace",824],["o",304],["n",816],["ENTER",1496]],"recall_words":["boron"],"recall_word_response_times":[1534],"category_target":0,"category_target_string":"","trial_type":"free-recall","trial_index":30,"time_elapsed":660501,"internal_node_id":"0.0-30.0","data_path":"experiments/category_targeting/cuefr.h5","stimuli_path":"experiments/category_targeting/assets/cuefr_pool.txt","category_path":"experiments/category_targeting/assets/cuefr_labels.txt","subjectId":0},{"load_time":664640.8999996185,"recall_display_time":664640.8999996185,"category_cue":"","recall_responses":[],"recall_words":[],"recall_word_response_times":[],"category_target":0,"category_target_string":"","trial_type":"free-recall","trial_index":31,"time_elapsed":675516,"internal_node_id":"0.0-31.0","data_path":"experiments/category_targeting/cuefr.h5","stimuli_path":"experiments/category_targeting/assets/cuefr_pool.txt","category_path":"experiments/category_targeting/assets/cuefr_labels.txt","subjectId":0},{"load_time":679655.5999994278,"recall_display_time":679655.6999998093,"category_cue":"","recall_responses":[["b",1272],["a",240],["t",544],["ENTER",992]],"recall_words":["bat"],"recall_word_response_times":[1272],"category_target":0,"category_target_string":"","trial_type":"free-recall","trial_index":32,"time_elapsed":678566,"internal_node_id":"0.0-32.0","data_path":"experiments/category_targeting/cuefr.h5","stimuli_path":"experiments/category_targeting/assets/cuefr_pool.txt","category_path":"experiments/category_targeting/assets/cuefr_labels.txt","subjectId":0},{"load_time":682704.8999996185,"recall_display_time":682705,"category_cue":"","recall_responses":[["s",5270],["t",160],["r",152],["e",168],["a",264],["m",1248],["ENTER",616]],"recall_words":["stream"],"recall_word_response_times":[5270],"category_target":0,"category_target_string":"","trial_type":"free-recall","trial_index":33,"time_elapsed":686446,"internal_node_id":"0.0-33.0","data_path":"experiments/category_targeting/cuefr.h5","stimuli_path":"experiments/category_targeting/assets/cuefr_pool.txt","category_path":"experiments/category_targeting/assets/cuefr_labels.txt","subjectId":0},{"load_time":690584.8999996185,"recall_display_time":690584.8999996185,"category_cue":"","recall_responses":[["p",4382],["e",128],["a",312],["r",536],["ENTER",344]],"recall_words":["pear"],"recall_word_response_times":[4382],"category_target":0,"category_target_string":"","trial_type":"free-recall","trial_index":34,"time_elapsed":692150,"internal_node_id":"0.0-34.0","data_path":"experiments/category_targeting/cuefr.h5","stimuli_path":"experiments/category_targeting/assets/cuefr_pool.txt","category_path":"experiments/category_targeting/assets/cuefr_labels.txt","subjectId":0},{"trial_type":"call-function","trial_index":35,"time_elapsed":692150,"internal_node_id":"0.0-35.0","data_path":"experiments/category_targeting/cuefr.h5","stimuli_path":"experiments/category_targeting/assets/cuefr_pool.txt","category_path":"experiments/category_targeting/assets/cuefr_labels.txt","subjectId":0},{"view_history":[{"page_index":0,"viewing_time":10127}],"rt":10127,"trial_index":36,"trial_count":20,"message":"<p >When you're ready for the next trial, press Next.</p>","trial_type":"instructions","time_elapsed":702278,"internal_node_id":"0.0-36.0","data_path":"experiments/category_targeting/cuefr.h5","stimuli_path":"experiments/category_targeting/assets/cuefr_pool.txt","category_path":"experiments/category_targeting/assets/cuefr_labels.txt","subjectId":0},{"trial_type":"call-function","trial_index":37,"time_elapsed":702279,"internal_node_id":"0.0-37.0","data_path":"experiments/category_targeting/cuefr.h5","stimuli_path":"experiments/category_targeting/assets/cuefr_pool.txt","category_path":"experiments/category_targeting/assets/cuefr_labels.txt","subjectId":0},{"load_time":706416.0999994278,"fixation_display_time":706416.0999994278,"trial_type":"fixation","trial_index":38,"time_elapsed":703282,"internal_node_id":"0.0-38.0","data_path":"experiments/category_targeting/cuefr.h5","stimuli_path":"experiments/category_targeting/assets/cuefr_pool.txt","category_path":"experiments/category_targeting/assets/cuefr_labels.txt","subjectId":0},{"load_time":707420.0999994278,"word_display_times":[707420.0999994278,710436.6999998093,713451.0999994278,716469.7999992371,719483.1999998093,722500,725515.0999994278,728533.7999992371,731547.0999994278,734565.7999992371,737579.0999994278,740596,743611.1999998093,746629.6999998093,749643.0999994278,752661.6999998093],"word_list":["CHEETAH","MICHIGAN","LACE","ARMOIRE","SPAIN","TAMPA","PENCIL","BOOKLET","CELLAR","FLAMINGO","VOLKSWAGEN","EGGPLANT","TUGBOAT","TIDAL WAVE","SPIDER","PAJAMAS"],"category_list":["FOUR-FOOTED ANIMALS","STATES","FABRICS","FURNITURE","COUNTRIES","CITIES","CARPENTRY TOOLS","READING MATERIALS","BUILDING PARTS","BIRDS","CAR MODELS","VEGETABLES","SHIPS","WEATHER TERMS","INSECTS","CLOTHES"],"trial_type":"item-presentation","trial_index":39,"time_elapsed":751539,"internal_node_id":"0.0-39.0","data_path":"experiments/category_targeting/cuefr.h5","stimuli_path":"experiments/category_targeting/assets/cuefr_pool.txt","category_path":"experiments/category_targeting/assets/cuefr_labels.txt","subjectId":0},{"load_time":755680.2999992371,"recall_display_time":755680.2999992371,"category_cue":"","recall_responses":[["s",2679],["p",616],["a",256],["i",544],["n",264],["ENTER",864]],"recall_words":["spain"],"recall_word_response_times":[2679],"category_target":0,"category_target_string":"","trial_type":"free-recall","trial_index":40,"time_elapsed":756768,"internal_node_id":"0.0-40.0","data_path":"experiments/category_targeting/cuefr.h5","stimuli_path":"experiments/category_targeting/assets/cuefr_pool.txt","category_path":"experiments/category_targeting/assets/cuefr_labels.txt","subjectId":0},{"load_time":760904.6999998093,"recall_display_time":760904.7999992371,"category_cue":"","recall_responses":[["p",2246],["a",304],["j",464],["a",224],["m",408],["a",168],["s",280],["ENTER",544]],"recall_words":["pajamas"],"recall_word_response_times":[2246],"category_target":0,"category_target_string":"","trial_type":"free-recall","trial_index":41,"time_elapsed":761408,"internal_node_id":"0.0-41.0","data_path":"experiments/category_targeting/cuefr.h5","stimuli_path":"experiments/category_targeting/assets/cuefr_pool.txt","category_path":"experiments/category_targeting/assets/cuefr_labels.txt","subjectId":0},{"load_time":765544.7999992371,"recall_display_time":765544.7999992371,"category_cue":"","recall_responses":[["t",7015],["i",328],["d",168],["a",256],["l",176],[" ",408],["w",336],["a",248],["v",232],["e",176],["ENTER",544]],"recall_words":["tidal wave"],"recall_word_response_times":[7015],"category_target":0,"category_target_string":"","trial_type":"free-recall","trial_index":42,"time_elapsed":771296,"internal_node_id":"0.0-42.0","data_path":"experiments/category_targeting/cuefr.h5","stimuli_path":"experiments/category_targeting/assets/cuefr_pool.txt","category_path":"experiments/category_targeting/assets/cuefr_labels.txt","subjectId":0},{"load_time":775432.6999998093,"recall_display_time":775432.7999992371,"category_cue":"","recall_responses":[["c",3702],["h",144],["e",152],["e",200],["t",104],["a",440],["h",176],["ENTER",616]],"recall_words":["cheetah"],"recall_word_response_times":[3702],"category_target":0,"category_target_string":"","trial_type":"free-recall","trial_index":43,"time_elapsed":776832,"internal_node_id":"0.0-43.0","data_path":"experiments/category_targeting/cuefr.h5","stimuli_path":"experiments/category_targeting/assets/cuefr_pool.txt","category_path":"experiments/category_targeting/assets/cuefr_labels.txt","subjectId":0},{"load_time":780968.7999992371,"recall_display_time":780968.7999992371,"category_cue":"","recall_responses":[["v",10127],["o",408],["l",176],["k",160],["s",248],["w",528],["a",224],["g",160],["e",128],["n",144],["ENTER",432]],"recall_words":["volkswagen"],"recall_word_response_times":[10127],"category_target":0,"category_target_string":"","trial_type":"free-recall","trial_index":44,"time_elapsed":789569,"internal_node_id":"0.0-44.0","data_path":"experiments/category_targeting/cuefr.h5","stimuli_path":"experiments/category_targeting/assets/cuefr_pool.txt","category_path":"experiments/category_targeting/assets/cuefr_labels.txt","subjectId":0},{"load_time":793704.7999992371,"recall_display_time":793704.8999996185,"category_cue":"","recall_responses":[["t",12214],["backspace",2296]],"recall_words":[],"recall_word_response_times":[12214],"category_target":0,"category_target_string":"","trial_type":"free-recall","trial_index":45,"time_elapsed":804581,"internal_node_id":"0.0-45.0","data_path":"experiments/category_targeting/cuefr.h5","stimuli_path":"experiments/category_targeting/assets/cuefr_pool.txt","category_path":"experiments/category_targeting/assets/cuefr_labels.txt","subjectId":0},{"trial_type":"call-function","trial_index":46,"time_elapsed":804582,"internal_node_id":"0.0-46.0","data_path":"experiments/category_targeting/cuefr.h5","stimuli_path":"experiments/category_targeting/assets/cuefr_pool.txt","category_path":"experiments/category_targeting/assets/cuefr_labels.txt","subjectId":0},{"view_history":[{"page_index":0,"viewing_time":13027}],"rt":13027,"trial_index":47,"trial_count":20,"message":"<p >When you're ready for the next trial, press Next.</p>","trial_type":"instructions","time_elapsed":817610,"internal_node_id":"0.0-47.0","data_path":"experiments/category_targeting/cuefr.h5","stimuli_path":"experiments/category_targeting/assets/cuefr_pool.txt","category_path":"experiments/category_targeting/assets/cuefr_labels.txt","subjectId":0},{"trial_type":"call-function","trial_index":48,"time_elapsed":817610,"internal_node_id":"0.0-48.0","data_path":"experiments/category_targeting/cuefr.h5","stimuli_path":"experiments/category_targeting/assets/cuefr_pool.txt","category_path":"experiments/category_targeting/assets/cuefr_labels.txt","subjectId":0},{"load_time":821744,"fixation_display_time":821744,"trial_type":"fixation","trial_index":49,"time_elapsed":818614,"internal_node_id":"0.0-49.0","data_path":"experiments/category_targeting/cuefr.h5","stimuli_path":"experiments/category_targeting/assets/cuefr_pool.txt","category_path":"experiments/category_targeting/assets/cuefr_labels.txt","subjectId":0},{"load_time":822748.0999994278,"word_display_times":[822748.0999994278,825765.7999992371,828779.0999994278,831795.6999998093,834811.0999994278,837827.8999996185,840843.0999994278,843859.7999992371,846873.2999992371,849893.7999992371,852905.2999992371,855924,858938.2999992371,861956,864971.0999994278,867989.7999992371],"word_list":["HEMLOCK","SODIUM","RUGBY","CLIFF","APRICOT","CHEST","VINEGAR","POTATO PEELER","OBOE","CONDOMINIUM","CHARTREUSE","SWORDFISH","STUDENT","DALLAS","PORSCHE","ASPARAGUS"],"category_list":["TREES","ELEMENTS","SPORTS","GEOGRAPHY TERMS","FRUIT","BODY PARTS","SEASONINGS","KITCHEN TOOLS","INSTRUMENTS","DWELLINGS","COLORS","FISH","OCCUPATIONS","CITIES","CAR MODELS","VEGETABLES"],"trial_type":"item-presentation","trial_index":50,"time_elapsed":866871,"internal_node_id":"0.0-50.0","data_path":"experiments/category_targeting/cuefr.h5","stimuli_path":"experiments/category_targeting/assets/cuefr_pool.txt","category_path":"experiments/category_targeting/assets/cuefr_labels.txt","subjectId":0},{"load_time":871009.2999992371,"recall_display_time":871009.2999992371,"category_cue":"FRUIT","recall_responses":[["a",4998],["p",168],["r",248],["i",128],["c",328],["o",176],["t",520],["ENTER",504]],"recall_words":["apricot"],"recall_word_response_times":[4998],"category_target":257,"category_target_string":"APRICOT","trial_type":"free-recall","trial_index":51,"time_elapsed":873947,"internal_node_id":"0.0-51.0","data_path":"experiments/category_targeting/cuefr.h5","stimuli_path":"experiments/category_targeting/assets/cuefr_pool.txt","category_path":"experiments/category_targeting/assets/cuefr_labels.txt","subjectId":0},{"load_time":878080.7999992371,"recall_display_time":878080.8999996185,"category_cue":"","recall_responses":[["a",2582],["s",232],["a",256],["backspace",856],["p",280],["a",152],["r",368],["a",320],["g",152],["u",488],["s",136],["ENTER",456]],"recall_words":["asparagus"],"recall_word_response_times":[2582],"category_target":0,"category_target_string":"","trial_type":"free-recall","trial_index":52,"time_elapsed":880228,"internal_node_id":"0.0-52.0","data_path":"experiments/category_targeting/cuefr.h5","stimuli_path":"experiments/category_targeting/assets/cuefr_pool.txt","category_path":"experiments/category_targeting/assets/cuefr_labels.txt","subjectId":0},{"load_time":884360.7999992371,"recall_display_time":884360.8999996185,"category_cue":"COLORS","recall_responses":[["r",3246],["e",232],["d",256],["ENTER",336]],"recall_words":["red"],"recall_word_response_times":[3246],"category_target":130,"category_target_string":"CHARTREUSE","trial_type":"free-recall","trial_index":53,"time_elapsed":884300,"internal_node_id":"0.0-53.0","data_path":"experiments/category_targeting/cuefr.h5","stimuli_path":"experiments/category_targeting/assets/cuefr_pool.txt","category_path":"experiments/category_targeting/assets/cuefr_labels.txt","subjectId":0},{"load_time":888432.7999992371,"recall_display_time":888432.8999996185,"category_cue":"","recall_responses":[["c",1582],["o",224],["n",320],["d",224],["i",904],["o",360],["i",736],["u",232],["m",3432],["backspace",1120],["backspace",232],["backspace",240],["backspace",336],["backspace",360],["o",296],["n",1376],["d",224],["i",328],["o",1072],["u",264],["m",872]],"recall_words":["condondioum"],"recall_word_response_times":[1582,0],"category_target":0,"category_target_string":"","trial_type":"free-recall","trial_index":54,"time_elapsed":899315,"internal_node_id":"0.0-54.0","data_path":"experiments/category_targeting/cuefr.h5","stimuli_path":"experiments/category_targeting/assets/cuefr_pool.txt","category_path":"experiments/category_targeting/assets/cuefr_labels.txt","subjectId":0},{"load_time":903447.5999994278,"recall_display_time":903447.6999998093,"category_cue":"KITCHEN TOOLS","recall_responses":[["c",6248],["u",176],["t",184],["t",176],["i",104],["n",224],["g",472],[" ",1120],["b",376],["o",712],["a",448],["r",336],["d",240],["ENTER",648]],"recall_words":["cutting board"],"recall_word_response_times":[6248],"category_target":344,"category_target_string":"POTATO PEELER","trial_type":"free-recall","trial_index":55,"time_elapsed":910781,"internal_node_id":"0.0-55.0","data_path":"experiments/category_targeting/cuefr.h5","stimuli_path":"experiments/category_targeting/assets/cuefr_pool.txt","category_path":"experiments/category_targeting/assets/cuefr_labels.txt","subjectId":0},{"load_time":914912.8999996185,"recall_display_time":914913,"category_cue":"","recall_responses":[["s",3942],["w",216],["o",912],["r",152],["d",312],["f",632],["i",328],["s",184],["h",216],["ENTER",712]],"recall_words":["swordfish"],"recall_word_response_times":[3942],"category_target":0,"category_target_string":"","trial_type":"free-recall","trial_index":56,"time_elapsed":918389,"internal_node_id":"0.0-56.0","data_path":"experiments/category_targeting/cuefr.h5","stimuli_path":"experiments/category_targeting/assets/cuefr_pool.txt","category_path":"experiments/category_targeting/assets/cuefr_labels.txt","subjectId":0},{"trial_type":"call-function","trial_index":57,"time_elapsed":918389,"internal_node_id":"0.0-57.0","data_path":"experiments/category_targeting/cuefr.h5","stimuli_path":"experiments/category_targeting/assets/cuefr_pool.txt","category_path":"experiments/category_targeting/assets/cuefr_labels.txt","subjectId":0},{"view_history":[{"page_index":0,"viewing_time":9799}],"rt":9799,"trial_index":58,"trial_count":20,"message":"<p >When you're ready for the next trial, press Next.</p>","trial_type":"instructions","time_elapsed":928189,"internal_node_id":"0.0-58.0","data_path":"experiments/category_targeting/cuefr.h5","stimuli_path":"experiments/category_targeting/assets/cuefr_pool.txt","category_path":"experiments/category_targeting/assets/cuefr_labels.txt","subjectId":0},{"trial_type":"call-function","trial_index":59,"time_elapsed":928189,"internal_node_id":"0.0-59.0","data_path":"experiments/category_targeting/cuefr.h5","stimuli_path":"experiments/category_targeting/assets/cuefr_pool.txt","category_path":"experiments/category_targeting/assets/cuefr_labels.txt","subjectId":0},{"load_time":932319.8999996185,"fixation_display_time":932319.8999996185,"trial_type":"fixation","trial_index":60,"time_elapsed":929193,"internal_node_id":"0.0-60.0","data_path":"experiments/category_targeting/cuefr.h5","stimuli_path":"experiments/category_targeting/assets/cuefr_pool.txt","category_path":"experiments/category_targeting/assets/cuefr_labels.txt","subjectId":0},{"load_time":933324,"word_display_times":[933324,936341.7999992371,939353,942373.7999992371,945387.0999994278,948405.7999992371,951419.1999998093,954437.7999992371,957451.0999994278,960469.6999998093,963483.0999994278,966499.8999996185,969515.0999994278,972532.0999994278,975547.0999994278,978555.1999998093],"word_list":["BUTTERFLY","HALLWAY","PADDLE BOAT","FLANNEL","CHICKEN","OTTOMAN","INDIANA","JOURNAL","MEASURING STICK","WIND","SQUIRREL","BELT","SOUTH AFRICA","ENGINEER","CADILLAC","TRAILER"],"category_list":["INSECTS","BUILDING PARTS","SHIPS","FABRICS","BIRDS","FURNITURE","STATES","READING MATERIALS","CARPENTRY TOOLS","WEATHER TERMS","FOUR-FOOTED ANIMALS","CLOTHES","COUNTRIES","OCCUPATIONS","CAR MODELS","DWELLINGS"],"trial_type":"item-presentation","trial_index":61,"time_elapsed":977443,"internal_node_id":"0.0-61.0","data_path":"experiments/category_targeting/cuefr.h5","stimuli_path":"experiments/category_targeting/assets/cuefr_pool.txt","category_path":"experiments/category_targeting/assets/cuefr_labels.txt","subjectId":0},{"load_time":981577.8999996185,"recall_display_time":981578,"category_cue":"","recall_responses":[["t",2277],["r",136],["a",512],["i",224],["l",496],["e",184],["r",240],["ENTER",536]],"recall_words":["trailer"],"recall_word_response_times":[2277],"category_target":0,"category_target_string":"","trial_type":"free-recall","trial_index":62,"time_elapsed":982055,"internal_node_id":"0.0-62.0","data_path":"experiments/category_targeting/cuefr.h5","stimuli_path":"experiments/category_targeting/assets/cuefr_pool.txt","category_path":"experiments/category_targeting/assets/cuefr_labels.txt","subjectId":0},{"load_time":986184.8999996185,"recall_display_time":986184.8999996185,"category_cue":"","recall_responses":[["c",806],["a",240],["d",240],["a",400],["l",304],["i",320],["c",280],["backspace",704],["a",208],["c",232],["ENTER",352]],"recall_words":["cadaliac"],"recall_word_response_times":[806],"category_target":0,"category_target_string":"","trial_type":"free-recall","trial_index":63,"time_elapsed":986143,"internal_node_id":"0.0-63.0","data_path":"experiments/category_targeting/cuefr.h5","stimuli_path":"experiments/category_targeting/assets/cuefr_pool.txt","category_path":"experiments/category_targeting/assets/cuefr_labels.txt","subjectId":0},{"load_time":990272.8999996185,"recall_display_time":990273,"category_cue":"","recall_responses":[["i",1678],["n",1528],["d",208],["i",320],["a",160],["n",1008],["a",136],["ENTER",720]],"recall_words":["indiana"],"recall_word_response_times":[1678],"category_target":0,"category_target_string":"","trial_type":"free-recall","trial_index":64,"time_elapsed":991903,"internal_node_id":"0.0-64.0","data_path":"experiments/category_targeting/cuefr.h5","stimuli_path":"experiments/category_targeting/assets/cuefr_pool.txt","category_path":"experiments/category_targeting/assets/cuefr_labels.txt","subjectId":0},{"load_time":996032.7999992371,"recall_display_time":996032.7999992371,"category_cue":"","recall_responses":[["s",3054],["q",216],["u",200],["i",224],["r",392],["r",232],["e",224],["l",400],["ENTER",464]],"recall_words":["squirrel"],"recall_word_response_times":[3054],"category_target":0,"category_target_string":"","trial_type":"free-recall","trial_index":65,"time_elapsed":997311,"internal_node_id":"0.0-65.0","data_path":"experiments/category_targeting/cuefr.h5","stimuli_path":"experiments/category_targeting/assets/cuefr_pool.txt","category_path":"experiments/category_targeting/assets/cuefr_labels.txt","subjectId":0},{"load_time":1001441,"recall_display_time":1001441.0999994278,"category_cue":"","recall_responses":[["s",4078],["o",184],["u",288],["t",232],["h",208],[" ",280],["a",376],["f",136],["r",216],["i",192],["c",184],["a",312],["ENTER",272]],"recall_words":["south africa"],"recall_word_response_times":[4078],"category_target":0,"category_target_string":"","trial_type":"free-recall","trial_index":66,"time_elapsed":1004271,"internal_node_id":"0.0-66.0","data_path":"experiments/category_targeting/cuefr.h5","stimuli_path":"experiments/category_targeting/assets/cuefr_pool.txt","category_path":"experiments/category_targeting/assets/cuefr_labels.txt","subjectId":0},{"load_time":1008400.8999996185,"recall_display_time":1008400.8999996185,"category_cue":"","recall_responses":[["e",774],["n",280],["g",208],["i",144],["n",240],["e",192],["e",288],["r",264],["ENTER",624]],"recall_words":["engineer"],"recall_word_response_times":[774],"category_target":0,"category_target_string":"","trial_type":"free-recall","trial_index":67,"time_elapsed":1007287,"internal_node_id":"0.0-67.0","data_path":"experiments/category_targeting/cuefr.h5","stimuli_path":"experiments/category_targeting/assets/cuefr_pool.txt","category_path":"experiments/category_targeting/assets/cuefr_labels.txt","subjectId":0},{"trial_type":"call-function","trial_index":68,"time_elapsed":1007288,"internal_node_id":"0.0-68.0","data_path":"experiments/category_targeting/cuefr.h5","stimuli_path":"experiments/category_targeting/assets/cuefr_pool.txt","category_path":"experiments/category_targeting/assets/cuefr_labels.txt","subjectId":0},{"view_history":[{"page_index":0,"viewing_time":5087}],"rt":5087,"trial_index":69,"trial_count":20,"message":"<p >When you're ready for the next trial, press Next.</p>","trial_type":"instructions","time_elapsed":1012376,"internal_node_id":"0.0-69.0","data_path":"experiments/category_targeting/cuefr.h5","stimuli_path":"experiments/category_targeting/assets/cuefr_pool.txt","category_path":"experiments/category_targeting/assets/cuefr_labels.txt","subjectId":0},{"trial_type":"call-function","trial_index":70,"time_elapsed":1012376,"internal_node_id":"0.0-70.0","data_path":"experiments/category_targeting/cuefr.h5","stimuli_path":"experiments/category_targeting/assets/cuefr_pool.txt","category_path":"experiments/category_targeting/assets/cuefr_labels.txt","subjectId":0},{"load_time":1016503.8999996185,"fixation_display_time":1016503.8999996185,"trial_type":"fixation","trial_index":71,"time_elapsed":1013382,"internal_node_id":"0.0-71.0","data_path":"experiments/category_targeting/cuefr.h5","stimuli_path":"experiments/category_targeting/assets/cuefr_pool.txt","category_path":"experiments/category_targeting/assets/cuefr_labels.txt","subjectId":0},{"load_time":1017510.7999992371,"word_display_times":[1017510.7999992371,1020521,1023541.6999998093,1026555.3999996185,1029573.7999992371,1032587.1999998093,1035603.7999992371,1038619.0999994278,1041638.0999994278,1044651.2999992371,1047667.7999992371,1050683.0999994278,1053701.799999237,1056715.1999998093,1059733.799999237,1062747.0999994278],"word_list":["HOUSTON","MIXER","CARP","BOWLING","FRENCH HORN","RIVER","BASIL","ONION","STOMACH","CHLORINE","KIWI","INDIGO","BLUE SPRUCE","AUDI","PAMPHLET","OWL"],"category_list":["CITIES","KITCHEN TOOLS","FISH","SPORTS","INSTRUMENTS","GEOGRAPHY TERMS","SEASONINGS","VEGETABLES","BODY PARTS","ELEMENTS","FRUIT","COLORS","TREES","CAR MODELS","READING MATERIALS","BIRDS"],"trial_type":"item-presentation","trial_index":72,"time_elapsed":1061640,"internal_node_id":"0.0-72.0","data_path":"experiments/category_targeting/cuefr.h5","stimuli_path":"experiments/category_targeting/assets/cuefr_pool.txt","category_path":"experiments/category_targeting/assets/cuefr_labels.txt","subjectId":0},{"load_time":1065772.0999994278,"recall_display_time":1065772.1999998093,"category_cue":"FRUIT","recall_responses":[["a",9779],["p",192],["p",232],["l",312],["e",304],["ENTER",576]],"recall_words":["apple"],"recall_word_response_times":[9779],"category_target":263,"category_target_string":"KIWI","trial_type":"free-recall","trial_index":73,"time_elapsed":1073041,"internal_node_id":"0.0-73.0","data_path":"experiments/category_targeting/cuefr.h5","stimuli_path":"experiments/category_targeting/assets/cuefr_pool.txt","category_path":"experiments/category_targeting/assets/cuefr_labels.txt","subjectId":0},{"load_time":1077168.8999996185,"recall_display_time":1077169,"category_cue":"","recall_responses":[["c",8671],["a",232],["r",264],["p",168],["ENTER",408]],"recall_words":["carp"],"recall_word_response_times":[8671],"category_target":0,"category_target_string":"","trial_type":"free-recall","trial_index":74,"time_elapsed":1082786,"internal_node_id":"0.0-74.0","data_path":"experiments/category_targeting/cuefr.h5","stimuli_path":"experiments/category_targeting/assets/cuefr_pool.txt","category_path":"experiments/category_targeting/assets/cuefr_labels.txt","subjectId":0},{"load_time":1086912.8999996185,"recall_display_time":1086912.8999996185,"category_cue":"VEGETABLES","recall_responses":[["o",5366],["n",288],["i",264],["o",224],["n",264],["ENTER",936]],"recall_words":["onion"],"recall_word_response_times":[5366],"category_target":491,"category_target_string":"ONION","trial_type":"free-recall","trial_index":75,"time_elapsed":1090130,"internal_node_id":"0.0-75.0","data_path":"experiments/category_targeting/cuefr.h5","stimuli_path":"experiments/category_targeting/assets/cuefr_pool.txt","category_path":"experiments/category_targeting/assets/cuefr_labels.txt","subjectId":0},{"load_time":1094256.8999996185,"recall_display_time":1094256.8999996185,"category_cue":"","recall_responses":[["a",6350],["u",136],["d",168],["i",80],["ENTER",704]],"recall_words":["audi"],"recall_word_response_times":[6350],"category_target":0,"category_target_string":"","trial_type":"free-recall","trial_index":76,"time_elapsed":1097570,"internal_node_id":"0.0-76.0","data_path":"experiments/category_targeting/cuefr.h5","stimuli_path":"experiments/category_targeting/assets/cuefr_pool.txt","category_path":"experiments/category_targeting/assets/cuefr_labels.txt","subjectId":0},{"load_time":1101696.8999996185,"recall_display_time":1101697,"category_cue":"INSTRUMENTS","recall_responses":[["c",4422],["l",144],["a",120],["r",304],["i",1232],["n",248],["e",72],["t",256],["ENTER",824]],"recall_words":["clarinet"],"recall_word_response_times":[4422],"category_target":328,"category_target_string":"FRENCH HORN","trial_type":"free-recall","trial_index":77,"time_elapsed":1105194,"internal_node_id":"0.0-77.0","data_path":"experiments/category_targeting/cuefr.h5","stimuli_path":"experiments/category_targeting/assets/cuefr_pool.txt","category_path":"experiments/category_targeting/assets/cuefr_labels.txt","subjectId":0},{"load_time":1109320.8999996185,"recall_display_time":1109320.8999996185,"category_cue":"","recall_responses":[],"recall_words":[],"recall_word_response_times":[],"category_target":0,"category_target_string":"","trial_type":"free-recall","trial_index":78,"time_elapsed":1120209,"internal_node_id":"0.0-78.0","data_path":"experiments/category_targeting/cuefr.h5","stimuli_path":"experiments/category_targeting/assets/cuefr_pool.txt","category_path":"experiments/category_targeting/assets/cuefr_labels.txt","subjectId":0},{"trial_type":"call-function","trial_index":79,"time_elapsed":1120210,"internal_node_id":"0.0-79.0","data_path":"experiments/category_targeting/cuefr.h5","stimuli_path":"experiments/category_targeting/assets/cuefr_pool.txt","category_path":"experiments/category_targeting/assets/cuefr_labels.txt","subjectId":0},{"view_history":[{"page_index":0,"viewing_time":11345}],"rt":11345,"trial_index":80,"trial_count":20,"message":"<p >When you're ready for the next trial, press Next.</p>","trial_type":"instructions","time_elapsed":1131564,"internal_node_id":"0.0-80.0","data_path":"experiments/category_targeting/cuefr.h5","stimuli_path":"experiments/category_targeting/assets/cuefr_pool.txt","category_path":"experiments/category_targeting/assets/cuefr_labels.txt","subjectId":0},{"trial_type":"call-function","trial_index":81,"time_elapsed":1131565,"internal_node_id":"0.0-81.0","data_path":"experiments/category_targeting/cuefr.h5","stimuli_path":"experiments/category_targeting/assets/cuefr_pool.txt","category_path":"experiments/category_targeting/assets/cuefr_labels.txt","subjectId":0},{"load_time":1135679.8999996185,"fixation_display_time":1135679.8999996185,"trial_type":"fixation","trial_index":82,"time_elapsed":1132569,"internal_node_id":"0.0-82.0","data_path":"experiments/category_targeting/cuefr.h5","stimuli_path":"experiments/category_targeting/assets/cuefr_pool.txt","category_path":"experiments/category_targeting/assets/cuefr_labels.txt","subjectId":0},{"load_time":1136684,"word_display_times":[1136684,1139700.1999998093,1142715.0999994278,1145733.799999237,1148747.0999994278,1151765.799999237,1154779.1999998093,1157797.799999237,1160811.299999237,1163829.799999237,1166841.299999237,1169859.8999996185,1172875,1175891.8999996185,1178907.0999994278,1181925.799999237],"word_list":["DORMITORY","WRENCH","CABINET","COCKROACH","IRAQ","ZEBRA","WING","SHORTS","YACHT","LIGHTNING","SOUTH DAKOTA","FLEECE","FIREFIGHTER","GOLF","MAROON","CORVETTE"],"category_list":["DWELLINGS","CARPENTRY TOOLS","FURNITURE","INSECTS","COUNTRIES","FOUR-FOOTED ANIMALS","BUILDING PARTS","CLOTHES","SHIPS","WEATHER TERMS","STATES","FABRICS","OCCUPATIONS","SPORTS","COLORS","CAR MODELS"],"trial_type":"item-presentation","trial_index":83,"time_elapsed":1180835,"internal_node_id":"0.0-83.0","data_path":"experiments/category_targeting/cuefr.h5","stimuli_path":"experiments/category_targeting/assets/cuefr_pool.txt","category_path":"experiments/category_targeting/assets/cuefr_labels.txt","subjectId":0},{"load_time":1184944.5999994278,"recall_display_time":1184944.5999994278,"category_cue":"FABRICS","recall_responses":[["f",2631],["l",304],["e",248],["e",192],["c",312],["e",304],["ENTER",656]],"recall_words":["fleece"],"recall_word_response_times":[2631],"category_target":206,"category_target_string":"FLEECE","trial_type":"free-recall","trial_index":84,"time_elapsed":1185488,"internal_node_id":"0.0-84.0","data_path":"experiments/category_targeting/cuefr.h5","stimuli_path":"experiments/category_targeting/assets/cuefr_pool.txt","category_path":"experiments/category_targeting/assets/cuefr_labels.txt","subjectId":0},{"load_time":1189593,"recall_display_time":1189593,"category_cue":"","recall_responses":[["c",3830],["o",360],["r",160],["v",320],["e",128],["t",568],["t",240],["e",192],["backspace",904],["backspace",920],["backspace",184],["backspace",184],["backspace",120],["backspace",352],["backspace",216],["backspace",192],["i",6032]],"recall_words":["i"],"recall_word_response_times":[3830,0],"category_target":0,"category_target_string":"","trial_type":"free-recall","trial_index":85,"time_elapsed":1200503,"internal_node_id":"0.0-85.0","data_path":"experiments/category_targeting/cuefr.h5","stimuli_path":"experiments/category_targeting/assets/cuefr_pool.txt","category_path":"experiments/category_targeting/assets/cuefr_labels.txt","subjectId":0},{"load_time":1204607.8999996185,"recall_display_time":1204607.8999996185,"category_cue":"COUNTRIES","recall_responses":[["r",175],["a",384],["backspace",1616],["backspace",272],["i",432],["r",144],["a",296],["q",200],["ENTER",664]],"recall_words":["iraq"],"recall_word_response_times":[175],"category_target":154,"category_target_string":"IRAQ","trial_type":"free-recall","trial_index":86,"time_elapsed":1204688,"internal_node_id":"0.0-86.0","data_path":"experiments/category_targeting/cuefr.h5","stimuli_path":"experiments/category_targeting/assets/cuefr_pool.txt","category_path":"experiments/category_targeting/assets/cuefr_labels.txt","subjectId":0},{"load_time":1208792.799999237,"recall_display_time":1208792.799999237,"category_cue":"","recall_responses":[["c",7078],["o",144],["r",144],["v",184],["e",104],["t",176],["t",152],["e",192],["ENTER",336]],"recall_words":["corvette"],"recall_word_response_times":[7078],"category_target":0,"category_target_string":"","trial_type":"free-recall","trial_index":87,"time_elapsed":1213201,"internal_node_id":"0.0-87.0","data_path":"experiments/category_targeting/cuefr.h5","stimuli_path":"experiments/category_targeting/assets/cuefr_pool.txt","category_path":"experiments/category_targeting/assets/cuefr_labels.txt","subjectId":0},{"load_time":1217304.6999998093,"recall_display_time":1217304.799999237,"category_cue":"SHIPS","recall_responses":[["w",5550],["a",224],["t",112],["e",184],["r",256],["ENTER",512]],"recall_words":["water"],"recall_word_response_times":[5550],"category_target":421,"category_target_string":"YACHT","trial_type":"free-recall","trial_index":88,"time_elapsed":1220041,"internal_node_id":"0.0-88.0","data_path":"experiments/category_targeting/cuefr.h5","stimuli_path":"experiments/category_targeting/assets/cuefr_pool.txt","category_path":"experiments/category_targeting/assets/cuefr_labels.txt","subjectId":0},{"load_time":1224144.8999996185,"recall_display_time":1224145,"category_cue":"","recall_responses":[["c",6182],["o",128],["c",144],["k",96],["r",312],["o",168],["a",200],["c",224],["h",240],["ENTER",816]],"recall_words":["cockroach"],"recall_word_response_times":[6182],"category_target":0,"category_target_string":"","trial_type":"free-recall","trial_index":89,"time_elapsed":1228553,"internal_node_id":"0.0-89.0","data_path":"experiments/category_targeting/cuefr.h5","stimuli_path":"experiments/category_targeting/assets/cuefr_pool.txt","category_path":"experiments/category_targeting/assets/cuefr_labels.txt","subjectId":0},{"trial_type":"call-function","trial_index":90,"time_elapsed":1228554,"internal_node_id":"0.0-90.0","data_path":"experiments/category_targeting/cuefr.h5","stimuli_path":"experiments/category_targeting/assets/cuefr_pool.txt","category_path":"experiments/category_targeting/assets/cuefr_labels.txt","subjectId":0},{"view_history":[{"page_index":0,"viewing_time":9767}],"rt":9767,"trial_index":91,"trial_count":20,"message":"<p >When you're ready for the next trial, press Next.</p>","trial_type":"instructions","time_elapsed":1238322,"internal_node_id":"0.0-91.0","data_path":"experiments/category_targeting/cuefr.h5","stimuli_path":"experiments/category_targeting/assets/cuefr_pool.txt","category_path":"experiments/category_targeting/assets/cuefr_labels.txt","subjectId":0},{"trial_type":"call-function","trial_index":92,"time_elapsed":1238322,"internal_node_id":"0.0-92.0","data_path":"experiments/category_targeting/cuefr.h5","stimuli_path":"experiments/category_targeting/assets/cuefr_pool.txt","category_path":"experiments/category_targeting/assets/cuefr_labels.txt","subjectId":0},{"load_time":1242424,"fixation_display_time":1242424,"trial_type":"fixation","trial_index":93,"time_elapsed":1239328,"internal_node_id":"0.0-93.0","data_path":"experiments/category_targeting/cuefr.h5","stimuli_path":"experiments/category_targeting/assets/cuefr_pool.txt","category_path":"experiments/category_targeting/assets/cuefr_labels.txt","subjectId":0},{"load_time":1243430.6999998093,"word_display_times":[1243430.6999998093,1246441.299999237,1249458.6999998093,1252475.0999994278,1255493.799999237,1258507.0999994278,1261525.799999237,1264539.0999994278,1267557.799999237,1270571.0999994278,1273587.799999237,1276603.0999994278,1279621.6999998093,1282635.0999994278,1285651.8999996185,1288665.299999237],"word_list":["COMIC BOOK","CUCUMBER","ATLANTA","NECTARINE","TONGS","TAMBOURINE","LEAD","EAR","HERBS","PIRANHA","CANYON","VULTURE","ELM","FOUNDATION","BEE","FOX"],"category_list":["READING MATERIALS","VEGETABLES","CITIES","FRUIT","KITCHEN TOOLS","INSTRUMENTS","ELEMENTS","BODY PARTS","SEASONINGS","FISH","GEOGRAPHY TERMS","BIRDS","TREES","BUILDING PARTS","INSECTS","FOUR-FOOTED ANIMALS"],"trial_type":"item-presentation","trial_index":94,"time_elapsed":1287584,"internal_node_id":"0.0-94.0","data_path":"experiments/category_targeting/cuefr.h5","stimuli_path":"experiments/category_targeting/assets/cuefr_pool.txt","category_path":"experiments/category_targeting/assets/cuefr_labels.txt","subjectId":0},{"load_time":1291690.3999996185,"recall_display_time":1291690.3999996185,"category_cue":"BIRDS","recall_responses":[["v",2485],["u",368],["l",248],["t",376],["u",248],["r",152],["e",208],["ENTER",560]],"recall_words":["vulture"],"recall_word_response_times":[2485],"category_target":20,"category_target_string":"VULTURE","trial_type":"free-recall","trial_index":95,"time_elapsed":1292235,"internal_node_id":"0.0-95.0","data_path":"experiments/category_targeting/cuefr.h5","stimuli_path":"experiments/category_targeting/assets/cuefr_pool.txt","category_path":"experiments/category_targeting/assets/cuefr_labels.txt","subjectId":0},{"load_time":1296336.8999996185,"recall_display_time":1296337,"category_cue":"","recall_responses":[["p",862],["i",272],["r",112],["a",456],["n",816],["h",496],["a",216],["ENTER",640]],"recall_words":["piranha"],"recall_word_response_times":[862],"category_target":0,"category_target_string":"","trial_type":"free-recall","trial_index":96,"time_elapsed":1296107,"internal_node_id":"0.0-96.0","data_path":"experiments/category_targeting/cuefr.h5","stimuli_path":"experiments/category_targeting/assets/cuefr_pool.txt","category_path":"experiments/category_targeting/assets/cuefr_labels.txt","subjectId":0},{"load_time":1300208.8999996185,"recall_display_time":1300208.8999996185,"category_cue":"SEASONINGS","recall_responses":[["b",4206],["a",152],["s",224],["i",88],["l",288],["ENTER",568]],"recall_words":["basil"],"recall_word_response_times":[4206],"category_target":389,"category_target_string":"HERBS","trial_type":"free-recall","trial_index":97,"time_elapsed":1301636,"internal_node_id":"0.0-97.0","data_path":"experiments/category_targeting/cuefr.h5","stimuli_path":"experiments/category_targeting/assets/cuefr_pool.txt","category_path":"experiments/category_targeting/assets/cuefr_labels.txt","subjectId":0},{"load_time":1305736.8999996185,"recall_display_time":1305737,"category_cue":"","recall_responses":[["n",5550],["e",144],["c",296],["t",232],["r",408],["a",736],["i",344],["n",224],["e",200],["backspace",840],["backspace",200],["backspace",160],["backspace",152],["backspace",328],["a",128],["r",536],["i",208],["n",224],["e",136],["ENTER",3048]],"recall_words":["nectarine"],"recall_word_response_times":[5550],"category_target":0,"category_target_string":"","trial_type":"free-recall","trial_index":98,"time_elapsed":1315732,"internal_node_id":"0.0-98.0","data_path":"experiments/category_targeting/cuefr.h5","stimuli_path":"experiments/category_targeting/assets/cuefr_pool.txt","category_path":"experiments/category_targeting/assets/cuefr_labels.txt","subjectId":0},{"load_time":1319833,"recall_display_time":1319833.0999994278,"category_cue":"INSTRUMENTS","recall_responses":[["t",2526],["a",1688],["m",1040],["b",312],["o",232],["r",152],["i",104],["n",192],["e",128],["ENTER",776]],"recall_words":["tamborine"],"recall_word_response_times":[2526],"category_target":333,"category_target_string":"TAMBOURINE","trial_type":"free-recall","trial_index":99,"time_elapsed":1322884,"internal_node_id":"0.0-99.0","data_path":"experiments/category_targeting/cuefr.h5","stimuli_path":"experiments/category_targeting/assets/cuefr_pool.txt","category_path":"experiments/category_targeting/assets/cuefr_labels.txt","subjectId":0},{"load_time":1326984.6999998093,"recall_display_time":1326984.6999998093,"category_cue":"","recall_responses":[["f",8991],["o",144],["x",256],["ENTER",576]],"recall_words":["fox"],"recall_word_response_times":[8991],"category_target":0,"category_target_string":"","trial_type":"free-recall","trial_index":100,"time_elapsed":1332852,"internal_node_id":"0.0-100.0","data_path":"experiments/category_targeting/cuefr.h5","stimuli_path":"experiments/category_targeting/assets/cuefr_pool.txt","category_path":"experiments/category_targeting/assets/cuefr_labels.txt","subjectId":0},{"trial_type":"call-function","trial_index":101,"time_elapsed":1332853,"internal_node_id":"0.0-101.0","data_path":"experiments/category_targeting/cuefr.h5","stimuli_path":"experiments/category_targeting/assets/cuefr_pool.txt","category_path":"experiments/category_targeting/assets/cuefr_labels.txt","subjectId":0},{"view_history":[{"page_index":0,"viewing_time":7431}],"rt":7432,"trial_index":102,"trial_count":20,"message":"<p >When you're ready for the next trial, press Next.</p>","trial_type":"instructions","time_elapsed":1340285,"internal_node_id":"0.0-102.0","data_path":"experiments/category_targeting/cuefr.h5","stimuli_path":"experiments/category_targeting/assets/cuefr_pool.txt","category_path":"experiments/category_targeting/assets/cuefr_labels.txt","subjectId":0},{"trial_type":"call-function","trial_index":103,"time_elapsed":1340285,"internal_node_id":"0.0-103.0","data_path":"experiments/category_targeting/cuefr.h5","stimuli_path":"experiments/category_targeting/assets/cuefr_pool.txt","category_path":"experiments/category_targeting/assets/cuefr_labels.txt","subjectId":0},{"load_time":1344384.0999994278,"fixation_display_time":1344384.0999994278,"trial_type":"fixation","trial_index":104,"time_elapsed":1341289,"internal_node_id":"0.0-104.0","data_path":"experiments/category_targeting/cuefr.h5","stimuli_path":"experiments/category_targeting/assets/cuefr_pool.txt","category_path":"experiments/category_targeting/assets/cuefr_labels.txt","subjectId":0},{"load_time":1345388,"word_display_times":[1345388,1348405.799999237,1351421,1354435.799999237,1357451.0999994278,1360469.6999998093,1363483,1366499.8999996185,1369515.0999994278,1372533.799999237,1375547.0999994278,1378565.6999998093,1381579.1999998093,1384598,1387609.3999996185,1390629.799999237],"word_list":["END TABLE","AQUA","SAAB","LEATHER","WISCONSIN","HOTEL","ITALY","STEAMSHIP","CARPENTER","FLOOD","SWIMMING","T-SHIRT","VISE","BRUSSELS SPROUTS","SUGAR","FLUORINE"],"category_list":["FURNITURE","COLORS","CAR MODELS","FABRICS","STATES","DWELLINGS","COUNTRIES","SHIPS","OCCUPATIONS","WEATHER TERMS","SPORTS","CLOTHES","CARPENTRY TOOLS","VEGETABLES","SEASONINGS","ELEMENTS"],"trial_type":"item-presentation","trial_index":105,"time_elapsed":1389544,"internal_node_id":"0.0-105.0","data_path":"experiments/category_targeting/cuefr.h5","stimuli_path":"experiments/category_targeting/assets/cuefr_pool.txt","category_path":"experiments/category_targeting/assets/cuefr_labels.txt","subjectId":0},{"load_time":1393647.5999994278,"recall_display_time":1393647.6999998093,"category_cue":"OCCUPATIONS","recall_responses":[["c",2280],["a",256],["r",296],["p",256],["e",448],["n",2160],["t",304],["e",136],["r",176],["ENTER",600]],"recall_words":["carpenter"],"recall_word_response_times":[2280],"category_target":357,"category_target_string":"CARPENTER","trial_type":"free-recall","trial_index":106,"time_elapsed":1396462,"internal_node_id":"0.0-106.0","data_path":"experiments/category_targeting/cuefr.h5","stimuli_path":"experiments/category_targeting/assets/cuefr_pool.txt","category_path":"experiments/category_targeting/assets/cuefr_labels.txt","subjectId":0},{"load_time":1400560.8999996185,"recall_display_time":1400561,"category_cue":"","recall_responses":[["s",3622],["t",184],["e",208],["a",256],["m",568],["s",352],["h",256],["i",232],["p",240],["ENTER",480]],"recall_words":["steamship"],"recall_word_response_times":[3622],"category_target":0,"category_target_string":"","trial_type":"free-recall","trial_index":107,"time_elapsed":1402863,"internal_node_id":"0.0-107.0","data_path":"experiments/category_targeting/cuefr.h5","stimuli_path":"experiments/category_targeting/assets/cuefr_pool.txt","category_path":"experiments/category_targeting/assets/cuefr_labels.txt","subjectId":0},{"load_time":1406960.8999996185,"recall_display_time":1406960.8999996185,"category_cue":"CLOTHES","recall_responses":[["t",1742],["s",848],["h",144],["i",2680],["r",176],["t",400],["ENTER",1072]],"recall_words":["tshirt"],"recall_word_response_times":[1742],"category_target":123,"category_target_string":"T-SHIRT","trial_type":"free-recall","trial_index":108,"time_elapsed":1409927,"internal_node_id":"0.0-108.0","data_path":"experiments/category_targeting/cuefr.h5","stimuli_path":"experiments/category_targeting/assets/cuefr_pool.txt","category_path":"experiments/category_targeting/assets/cuefr_labels.txt","subjectId":0},{"load_time":1414024.799999237,"recall_display_time":1414024.8999996185,"category_cue":"","recall_responses":[["w",5942],["i",144],["s",96],["c",848],["o",200],["n",248],["s",264],["i",576],["n",424],["ENTER",1720]],"recall_words":["wisconsin"],"recall_word_response_times":[5942],"category_target":0,"category_target_string":"","trial_type":"free-recall","trial_index":109,"time_elapsed":1420391,"internal_node_id":"0.0-109.0","data_path":"experiments/category_targeting/cuefr.h5","stimuli_path":"experiments/category_targeting/assets/cuefr_pool.txt","category_path":"experiments/category_targeting/assets/cuefr_labels.txt","subjectId":0},{"load_time":1424488.8999996185,"recall_display_time":1424488.8999996185,"category_cue":"DWELLINGS","recall_responses":[["a",6014],["b",224],["o",288],["d",192],["e",328],["ENTER",280]],"recall_words":["abode"],"recall_word_response_times":[6014],"category_target":173,"category_target_string":"HOTEL","trial_type":"free-recall","trial_index":110,"time_elapsed":1427719,"internal_node_id":"0.0-110.0","data_path":"experiments/category_targeting/cuefr.h5","stimuli_path":"experiments/category_targeting/assets/cuefr_pool.txt","category_path":"experiments/category_targeting/assets/cuefr_labels.txt","subjectId":0},{"load_time":1431816.6999998093,"recall_display_time":1431816.6999998093,"category_cue":"","recall_responses":[["a",2254],["s",320],["a",264],["d",880],["backspace",872],["backspace",240],["s",400],["d",624],["backspace",504],["backspace",208],["backspace",208],["backspace",192],["s",2480],["a",280],["s",480],["d",1256],["ENTER",808]],"recall_words":["sasd"],"recall_word_response_times":[2254],"category_target":0,"category_target_string":"","trial_type":"free-recall","trial_index":111,"time_elapsed":1439992,"internal_node_id":"0.0-111.0","data_path":"experiments/category_targeting/cuefr.h5","stimuli_path":"experiments/category_targeting/assets/cuefr_pool.txt","category_path":"experiments/category_targeting/assets/cuefr_labels.txt","subjectId":0},{"trial_type":"call-function","trial_index":112,"time_elapsed":1439992,"internal_node_id":"0.0-112.0","data_path":"experiments/category_targeting/cuefr.h5","stimuli_path":"experiments/category_targeting/assets/cuefr_pool.txt","category_path":"experiments/category_targeting/assets/cuefr_labels.txt","subjectId":0},{"view_history":[{"page_index":0,"viewing_time":8743}],"rt":8743,"trial_index":113,"trial_count":20,"message":"<p >When you're ready for the next trial, press Next.</p>","trial_type":"instructions","time_elapsed":1448736,"internal_node_id":"0.0-113.0","data_path":"experiments/category_targeting/cuefr.h5","stimuli_path":"experiments/category_targeting/assets/cuefr_pool.txt","category_path":"experiments/category_targeting/assets/cuefr_labels.txt","subjectId":0},{"trial_type":"call-function","trial_index":114,"time_elapsed":1448736,"internal_node_id":"0.0-114.0","data_path":"experiments/category_targeting/cuefr.h5","stimuli_path":"experiments/category_targeting/assets/cuefr_pool.txt","category_path":"experiments/category_targeting/assets/cuefr_labels.txt","subjectId":0},{"load_time":1452832.0999994278,"fixation_display_time":1452832.0999994278,"trial_type":"fixation","trial_index":115,"time_elapsed":1449740,"internal_node_id":"0.0-115.0","data_path":"experiments/category_targeting/cuefr.h5","stimuli_path":"experiments/category_targeting/assets/cuefr_pool.txt","category_path":"experiments/category_targeting/assets/cuefr_labels.txt","subjectId":0},{"load_time":1453836.0999994278,"word_display_times":[1453836.0999994278,1456853.799999237,1459867.0999994278,1462883.6999998093,1465897.0999994278,1468917.799999237,1471931.0999994278,1474947.799999237,1477963.0999994278,1480979.8999996185,1483995.5,1487013.6999998093,1490027.5999994278,1493045.799999237,1496059.3999996185,1499076],"word_list":["BULLETIN","KEYBOARD","BLOWFISH","VALLEY","ELEPHANT","BASEMENT","MEASURING CUP","KNEE","MELON","FLEA","GREENSBORO","SYCAMORE","OSTRICH","CASHMERE","NICKEL","TOWNHOUSE"],"category_list":["READING MATERIALS","INSTRUMENTS","FISH","GEOGRAPHY TERMS","FOUR-FOOTED ANIMALS","BUILDING PARTS","KITCHEN TOOLS","BODY PARTS","FRUIT","INSECTS","CITIES","TREES","BIRDS","FABRICS","ELEMENTS","DWELLINGS"],"trial_type":"item-presentation","trial_index":116,"time_elapsed":1497996,"internal_node_id":"0.0-116.0","data_path":"experiments/category_targeting/cuefr.h5","stimuli_path":"experiments/category_targeting/assets/cuefr_pool.txt","category_path":"experiments/category_targeting/assets/cuefr_labels.txt","subjectId":0},{"load_time":1502096.0999994278,"recall_display_time":1502096.1999998093,"category_cue":"","recall_responses":[["t",1487],["o",359],["w",144],["n",240],["s",480],["h",216],["backspace",752],["backspace",216],["h",512],["o",224],["u",208],["s",120],["e",256],["ENTER",416]],"recall_words":["townhouse"],"recall_word_response_times":[1487],"category_target":0,"category_target_string":"","trial_type":"free-recall","trial_index":117,"time_elapsed":1503634,"internal_node_id":"0.0-117.0","data_path":"experiments/category_targeting/cuefr.h5","stimuli_path":"experiments/category_targeting/assets/cuefr_pool.txt","category_path":"experiments/category_targeting/assets/cuefr_labels.txt","subjectId":0},{"load_time":1507728.799999237,"recall_display_time":1507728.8999996185,"category_cue":"","recall_responses":[["g",726],["r",160],["e",224],["e",224],["n",760],["s",96],["b",496],["o",288],["r",144],["o",232],["ENTER",720]],"recall_words":["greensboro"],"recall_word_response_times":[726],"category_target":0,"category_target_string":"","trial_type":"free-recall","trial_index":118,"time_elapsed":1507706,"internal_node_id":"0.0-118.0","data_path":"experiments/category_targeting/cuefr.h5","stimuli_path":"experiments/category_targeting/assets/cuefr_pool.txt","category_path":"experiments/category_targeting/assets/cuefr_labels.txt","subjectId":0},{"load_time":1511800.799999237,"recall_display_time":1511800.8999996185,"category_cue":"","recall_responses":[],"recall_words":[],"recall_word_response_times":[],"category_target":0,"category_target_string":"","trial_type":"free-recall","trial_index":119,"time_elapsed":1522718,"internal_node_id":"0.0-119.0","data_path":"experiments/category_targeting/cuefr.h5","stimuli_path":"experiments/category_targeting/assets/cuefr_pool.txt","category_path":"experiments/category_targeting/assets/cuefr_labels.txt","subjectId":0},{"load_time":1526812.8999996185,"recall_display_time":1526812.8999996185,"category_cue":"","recall_responses":[["t",7875],["backspace",1071],["n",4568],["u",384],["t",248],["ENTER",584]],"recall_words":["nut"],"recall_word_response_times":[7875],"category_target":0,"category_target_string":"","trial_type":"free-recall","trial_index":120,"time_elapsed":1537450,"internal_node_id":"0.0-120.0","data_path":"experiments/category_targeting/cuefr.h5","stimuli_path":"experiments/category_targeting/assets/cuefr_pool.txt","category_path":"experiments/category_targeting/assets/cuefr_labels.txt","subjectId":0},{"load_time":1541544.799999237,"recall_display_time":1541544.8999996185,"category_cue":"","recall_responses":[],"recall_words":[],"recall_word_response_times":[],"category_target":0,"category_target_string":"","trial_type":"free-recall","trial_index":121,"time_elapsed":1552463,"internal_node_id":"0.0-121.0","data_path":"experiments/category_targeting/cuefr.h5","stimuli_path":"experiments/category_targeting/assets/cuefr_pool.txt","category_path":"experiments/category_targeting/assets/cuefr_labels.txt","subjectId":0},{"load_time":1556556.8999996185,"recall_display_time":1556557,"category_cue":"","recall_responses":[],"recall_words":[],"recall_word_response_times":[],"category_target":0,"category_target_string":"","trial_type":"free-recall","trial_index":122,"time_elapsed":1567471,"internal_node_id":"0.0-122.0","data_path":"experiments/category_targeting/cuefr.h5","stimuli_path":"experiments/category_targeting/assets/cuefr_pool.txt","category_path":"experiments/category_targeting/assets/cuefr_labels.txt","subjectId":0},{"trial_type":"call-function","trial_index":123,"time_elapsed":1567472,"internal_node_id":"0.0-123.0","data_path":"experiments/category_targeting/cuefr.h5","stimuli_path":"experiments/category_targeting/assets/cuefr_pool.txt","category_path":"experiments/category_targeting/assets/cuefr_labels.txt","subjectId":0},{"view_history":[{"page_index":0,"viewing_time":14875}],"rt":14875,"trial_index":124,"trial_count":20,"message":"<p >When you're ready for the next trial, press Next.</p>","trial_type":"instructions","time_elapsed":1582348,"internal_node_id":"0.0-124.0","data_path":"experiments/category_targeting/cuefr.h5","stimuli_path":"experiments/category_targeting/assets/cuefr_pool.txt","category_path":"experiments/category_targeting/assets/cuefr_labels.txt","subjectId":0},{"trial_type":"call-function","trial_index":125,"time_elapsed":1582348,"internal_node_id":"0.0-125.0","data_path":"experiments/category_targeting/cuefr.h5","stimuli_path":"experiments/category_targeting/assets/cuefr_pool.txt","category_path":"experiments/category_targeting/assets/cuefr_labels.txt","subjectId":0},{"load_time":1586439.799999237,"fixation_display_time":1586439.799999237,"trial_type":"fixation","trial_index":126,"time_elapsed":1583354,"internal_node_id":"0.0-126.0","data_path":"experiments/category_targeting/cuefr.h5","stimuli_path":"experiments/category_targeting/assets/cuefr_pool.txt","category_path":"experiments/category_targeting/assets/cuefr_labels.txt","subjectId":0},{"load_time":1587446.5999994278,"word_display_times":[1587446.5999994278,1590457.5999994278,1593477.799999237,1596494.3999996185,1599509.799999237,1602523.1999998093,1605539.799999237,1608555.1999998093,1611573.6999998093,1614587.3999996185,1617604,1620619.0999994278,1623637.8999996185,1626651.0999994278,1629668,1632681.0999994278],"word_list":["VOLVO","KANSAS","POTATO","FIELD HOCKEY","LEVEL","TSUNAMI","PERU","LAVENDER","PROFESSOR","GARLIC","JACKET","DRESSER","FERRY","LIZARD","HUMMINGBIRD","PRESSURE COOKER"],"category_list":["CAR MODELS","STATES","VEGETABLES","SPORTS","CARPENTRY TOOLS","WEATHER TERMS","COUNTRIES","COLORS","OCCUPATIONS","SEASONINGS","CLOTHES","FURNITURE","SHIPS","FOUR-FOOTED ANIMALS","BIRDS","KITCHEN TOOLS"],"trial_type":"item-presentation","trial_index":127,"time_elapsed":1631611,"internal_node_id":"0.0-127.0","data_path":"experiments/category_targeting/cuefr.h5","stimuli_path":"experiments/category_targeting/assets/cuefr_pool.txt","category_path":"experiments/category_targeting/assets/cuefr_labels.txt","subjectId":0},{"load_time":1635707.3999996185,"recall_display_time":1635707.5,"category_cue":"","recall_responses":[["p",2028],["r",248],["e",256],["s",256],["s",96],["u",192],["r",168],["e",240],[" ",952],["c",432],["o",208],["o",200],["k",248],["e",208],["r",424],["ENTER",552]],"recall_words":["pressure cooker"],"recall_word_response_times":[2028],"category_target":0,"category_target_string":"","trial_type":"free-recall","trial_index":128,"time_elapsed":1638326,"internal_node_id":"0.0-128.0","data_path":"experiments/category_targeting/cuefr.h5","stimuli_path":"experiments/category_targeting/assets/cuefr_pool.txt","category_path":"experiments/category_targeting/assets/cuefr_labels.txt","subjectId":0},{"load_time":1642416.799999237,"recall_display_time":1642416.8999996185,"category_cue":"","recall_responses":[["h",670],["u",520],["m",264],["m",144],["i",224],["n",576],["g",168],["b",720],["i",248],["r",160],["d",256],["ENTER",456]],"recall_words":["hummingbird"],"recall_word_response_times":[670],"category_target":0,"category_target_string":"","trial_type":"free-recall","trial_index":129,"time_elapsed":1642734,"internal_node_id":"0.0-129.0","data_path":"experiments/category_targeting/cuefr.h5","stimuli_path":"experiments/category_targeting/assets/cuefr_pool.txt","category_path":"experiments/category_targeting/assets/cuefr_labels.txt","subjectId":0},{"load_time":1646824.799999237,"recall_display_time":1646824.8999996185,"category_cue":"","recall_responses":[["j",878],["a",112],["c",232],["k",104],["e",104],["t",288],["ENTER",632]],"recall_words":["jacket"],"recall_word_response_times":[878],"category_target":0,"category_target_string":"","trial_type":"free-recall","trial_index":130,"time_elapsed":1645086,"internal_node_id":"0.0-130.0","data_path":"experiments/category_targeting/cuefr.h5","stimuli_path":"experiments/category_targeting/assets/cuefr_pool.txt","category_path":"experiments/category_targeting/assets/cuefr_labels.txt","subjectId":0},{"load_time":1649176.6999998093,"recall_display_time":1649176.799999237,"category_cue":"","recall_responses":[["o",4286],["s",464],["t",184],["r",160],["i",120],["c",128],["h",128],["ENTER",3728]],"recall_words":["ostrich"],"recall_word_response_times":[4286],"category_target":0,"category_target_string":"","trial_type":"free-recall","trial_index":131,"time_elapsed":1654286,"internal_node_id":"0.0-131.0","data_path":"experiments/category_targeting/cuefr.h5","stimuli_path":"experiments/category_targeting/assets/cuefr_pool.txt","category_path":"experiments/category_targeting/assets/cuefr_labels.txt","subjectId":0},{"load_time":1658376.8999996185,"recall_display_time":1658377,"category_cue":"","recall_responses":[["p",1318],["e",128],["r",200],["u",208],["ENTER",656]],"recall_words":["peru"],"recall_word_response_times":[1318],"category_target":0,"category_target_string":"","trial_type":"free-recall","trial_index":132,"time_elapsed":1656798,"internal_node_id":"0.0-132.0","data_path":"experiments/category_targeting/cuefr.h5","stimuli_path":"experiments/category_targeting/assets/cuefr_pool.txt","category_path":"experiments/category_targeting/assets/cuefr_labels.txt","subjectId":0},{"load_time":1660888.6999998093,"recall_display_time":1660888.799999237,"category_cue":"","recall_responses":[],"recall_words":[],"recall_word_response_times":[],"category_target":0,"category_target_string":"","trial_type":"free-recall","trial_index":133,"time_elapsed":1671811,"internal_node_id":"0.0-133.0","data_path":"experiments/category_targeting/cuefr.h5","stimuli_path":"experiments/category_targeting/assets/cuefr_pool.txt","category_path":"experiments/category_targeting/assets/cuefr_labels.txt","subjectId":0},{"trial_type":"call-function","trial_index":134,"time_elapsed":1671811,"internal_node_id":"0.0-134.0","data_path":"experiments/category_targeting/cuefr.h5","stimuli_path":"experiments/category_targeting/assets/cuefr_pool.txt","category_path":"experiments/category_targeting/assets/cuefr_labels.txt","subjectId":0},{"view_history":[{"page_index":0,"viewing_time":10179}],"rt":10180,"trial_index":135,"trial_count":20,"message":"<p >When you're ready for the next trial, press Next.</p>","trial_type":"instructions","time_elapsed":1681991,"internal_node_id":"0.0-135.0","data_path":"experiments/category_targeting/cuefr.h5","stimuli_path":"experiments/category_targeting/assets/cuefr_pool.txt","category_path":"experiments/category_targeting/assets/cuefr_labels.txt","subjectId":0},{"trial_type":"call-function","trial_index":136,"time_elapsed":1681991,"internal_node_id":"0.0-136.0","data_path":"experiments/category_targeting/cuefr.h5","stimuli_path":"experiments/category_targeting/assets/cuefr_pool.txt","category_path":"experiments/category_targeting/assets/cuefr_labels.txt","subjectId":0},{"load_time":1686080,"fixation_display_time":1686080,"trial_type":"fixation","trial_index":137,"time_elapsed":1682995,"internal_node_id":"0.0-137.0","data_path":"experiments/category_targeting/cuefr.h5","stimuli_path":"experiments/category_targeting/assets/cuefr_pool.txt","category_path":"experiments/category_targeting/assets/cuefr_labels.txt","subjectId":0},{"load_time":1687083.8999996185,"word_display_times":[1687083.8999996185,1690102.3999996185,1693114.299999237,1696131,1699147.3999996185,1702165.799999237,1705177.299999237,1708197.799999237,1711211.0999994278,1714229.799999237,1717246.1999998093,1720260.0999994278,1723277.6999998093,1726293.799999237,1729307.1999998093,1732324],"word_list":["SHACK","CYMBAL","IRON","SAN DIEGO","TEXTBOOK","LIPS","ELEVATOR","WATERMELON","VELVET","CENTIPEDE","VOLCANO","BIRCH","HALIBUT","SKIING","RAT","PEAS"],"category_list":["DWELLINGS","INSTRUMENTS","ELEMENTS","CITIES","READING MATERIALS","BODY PARTS","BUILDING PARTS","FRUIT","FABRICS","INSECTS","GEOGRAPHY TERMS","TREES","FISH","SPORTS","FOUR-FOOTED ANIMALS","VEGETABLES"],"trial_type":"item-presentation","trial_index":138,"time_elapsed":1731252,"internal_node_id":"0.0-138.0","data_path":"experiments/category_targeting/cuefr.h5","stimuli_path":"experiments/category_targeting/assets/cuefr_pool.txt","category_path":"experiments/category_targeting/assets/cuefr_labels.txt","subjectId":0},{"load_time":1735345.299999237,"recall_display_time":1735345.299999237,"category_cue":"FABRICS","recall_responses":[["s",5078],["h",272],["i",272],["r",168],["t",280],["ENTER",400]],"recall_words":["shirt"],"recall_word_response_times":[5078],"category_target":215,"category_target_string":"VELVET","trial_type":"free-recall","trial_index":139,"time_elapsed":1737729,"internal_node_id":"0.0-139.0","data_path":"experiments/category_targeting/cuefr.h5","stimuli_path":"experiments/category_targeting/assets/cuefr_pool.txt","category_path":"experiments/category_targeting/assets/cuefr_labels.txt","subjectId":0},{"load_time":1741816.6999998093,"recall_display_time":1741816.799999237,"category_cue":"","recall_responses":[["p",1238],["e",144],["a",552],["s",248],["ENTER",656]],"recall_words":["peas"],"recall_word_response_times":[1238],"category_target":0,"category_target_string":"","trial_type":"free-recall","trial_index":140,"time_elapsed":1740569,"internal_node_id":"0.0-140.0","data_path":"experiments/category_targeting/cuefr.h5","stimuli_path":"experiments/category_targeting/assets/cuefr_pool.txt","category_path":"experiments/category_targeting/assets/cuefr_labels.txt","subjectId":0},{"load_time":1744656.8999996185,"recall_display_time":1744657,"category_cue":"TREES","recall_responses":[["a",5390],["c",1360],["o",408],["r",136],["n",1880],["ENTER",616]],"recall_words":["acorn"],"recall_word_response_times":[5390],"category_target":471,"category_target_string":"BIRCH","trial_type":"free-recall","trial_index":141,"time_elapsed":1750361,"internal_node_id":"0.0-141.0","data_path":"experiments/category_targeting/cuefr.h5","stimuli_path":"experiments/category_targeting/assets/cuefr_pool.txt","category_path":"experiments/category_targeting/assets/cuefr_labels.txt","subjectId":0},{"load_time":1754449,"recall_display_time":1754449.0999994278,"category_cue":"","recall_responses":[["s",7262],["a",200],["n",88],[" ",408],["d",128],["e",200],["i",128],["backspace",680],["backspace",160],["i",192],["e",104],["g",176],["o",592],["ENTER",520]],"recall_words":["san diego"],"recall_word_response_times":[7262],"category_target":0,"category_target_string":"","trial_type":"free-recall","trial_index":142,"time_elapsed":1761201,"internal_node_id":"0.0-142.0","data_path":"experiments/category_targeting/cuefr.h5","stimuli_path":"experiments/category_targeting/assets/cuefr_pool.txt","category_path":"experiments/category_targeting/assets/cuefr_labels.txt","subjectId":0},{"load_time":1765288.8999996185,"recall_display_time":1765289,"category_cue":"BODY PARTS","recall_responses":[["l",4022],["i",176],["p",160],["s",104],["ENTER",392]],"recall_words":["lips"],"recall_word_response_times":[4022],"category_target":32,"category_target_string":"LIPS","trial_type":"free-recall","trial_index":143,"time_elapsed":1766057,"internal_node_id":"0.0-143.0","data_path":"experiments/category_targeting/cuefr.h5","stimuli_path":"experiments/category_targeting/assets/cuefr_pool.txt","category_path":"experiments/category_targeting/assets/cuefr_labels.txt","subjectId":0},{"load_time":1770144.8999996185,"recall_display_time":1770145,"category_cue":"","recall_responses":[["b",5366],["o",368],["o",184],["k",208],["s",384],["ENTER",784]],"recall_words":["books"],"recall_word_response_times":[5366],"category_target":0,"category_target_string":"","trial_type":"free-recall","trial_index":144,"time_elapsed":1773354,"internal_node_id":"0.0-144.0","data_path":"experiments/category_targeting/cuefr.h5","stimuli_path":"experiments/category_targeting/assets/cuefr_pool.txt","category_path":"experiments/category_targeting/assets/cuefr_labels.txt","subjectId":0},{"trial_type":"call-function","trial_index":145,"time_elapsed":1773354,"internal_node_id":"0.0-145.0","data_path":"experiments/category_targeting/cuefr.h5","stimuli_path":"experiments/category_targeting/assets/cuefr_pool.txt","category_path":"experiments/category_targeting/assets/cuefr_labels.txt","subjectId":0},{"view_history":[{"page_index":0,"viewing_time":24279}],"rt":24279,"trial_index":146,"trial_count":20,"message":"<p >When you're ready for the next trial, press Next.</p>","trial_type":"instructions","time_elapsed":1797634,"internal_node_id":"0.0-146.0","data_path":"experiments/category_targeting/cuefr.h5","stimuli_path":"experiments/category_targeting/assets/cuefr_pool.txt","category_path":"experiments/category_targeting/assets/cuefr_labels.txt","subjectId":0},{"trial_type":"call-function","trial_index":147,"time_elapsed":1797635,"internal_node_id":"0.0-147.0","data_path":"experiments/category_targeting/cuefr.h5","stimuli_path":"experiments/category_targeting/assets/cuefr_pool.txt","category_path":"experiments/category_targeting/assets/cuefr_labels.txt","subjectId":0},{"load_time":1801719.8999996185,"fixation_display_time":1801719.8999996185,"trial_type":"fixation","trial_index":148,"time_elapsed":1798641,"internal_node_id":"0.0-148.0","data_path":"experiments/category_targeting/cuefr.h5","stimuli_path":"experiments/category_targeting/assets/cuefr_pool.txt","category_path":"experiments/category_targeting/assets/cuefr_labels.txt","subjectId":0},{"load_time":1802726.6999998093,"word_display_times":[1802726.6999998093,1805739.0999994278,1808755.8999996185,1811771.1999998093,1814789.799999237,1817803.0999994278,1820821.799999237,1823835.0999994278,1826853.799999237,1829867,1832885.799999237,1835899.0999994278,1838917.6999998093,1841929.299999237,1844948.1999998093,1847961.299999237],"word_list":["LAMP","PHYSICAL THERAPIST","CAN OPENER","SANDER","VIOLET","ROWBOAT","EGYPT","NEW HAMPSHIRE","RAIN","DODGE","CROW","SKIRT","TABASCO","CLOTH","CROSS COUNTRY","DOGWOOD"],"category_list":["FURNITURE","OCCUPATIONS","KITCHEN TOOLS","CARPENTRY TOOLS","COLORS","SHIPS","COUNTRIES","STATES","WEATHER TERMS","CAR MODELS","BIRDS","CLOTHES","SEASONINGS","FABRICS","SPORTS","TREES"],"trial_type":"item-presentation","trial_index":149,"time_elapsed":1846897,"internal_node_id":"0.0-149.0","data_path":"experiments/category_targeting/cuefr.h5","stimuli_path":"experiments/category_targeting/assets/cuefr_pool.txt","category_path":"experiments/category_targeting/assets/cuefr_labels.txt","subjectId":0},{"load_time":1850986.5,"recall_display_time":1850986.5,"category_cue":"","recall_responses":[["d",1613],["o",152],["g",480],["w",232],["o",272],["o",112],["d",120],["ENTER",512]],"recall_words":["dogwood"],"recall_word_response_times":[1613],"category_target":0,"category_target_string":"","trial_type":"free-recall","trial_index":150,"time_elapsed":1850396,"internal_node_id":"0.0-150.0","data_path":"experiments/category_targeting/cuefr.h5","stimuli_path":"experiments/category_targeting/assets/cuefr_pool.txt","category_path":"experiments/category_targeting/assets/cuefr_labels.txt","subjectId":0},{"load_time":1854481,"recall_display_time":1854481,"category_cue":"","recall_responses":[["s",470],["k",232],["i",144],["r",120],["t",248],["ENTER",600]],"recall_words":["skirt"],"recall_word_response_times":[470],"category_target":0,"category_target_string":"","trial_type":"free-recall","trial_index":151,"time_elapsed":1852212,"internal_node_id":"0.0-151.0","data_path":"experiments/category_targeting/cuefr.h5","stimuli_path":"experiments/category_targeting/assets/cuefr_pool.txt","category_path":"experiments/category_targeting/assets/cuefr_labels.txt","subjectId":0},{"load_time":1856296.6999998093,"recall_display_time":1856296.799999237,"category_cue":"","recall_responses":[["c",726],["r",240],["o",184],["w",200],["ENTER",408]],"recall_words":["crow"],"recall_word_response_times":[726],"category_target":0,"category_target_string":"","trial_type":"free-recall","trial_index":152,"time_elapsed":1853972,"internal_node_id":"0.0-152.0","data_path":"experiments/category_targeting/cuefr.h5","stimuli_path":"experiments/category_targeting/assets/cuefr_pool.txt","category_path":"experiments/category_targeting/assets/cuefr_labels.txt","subjectId":0},{"load_time":1858056.6999998093,"recall_display_time":1858056.799999237,"category_cue":"","recall_responses":[["m",1382],["e",312],["backspace",672],["backspace",184],["n",904],["e",224],["w",336],[" ",328],["h",344],["a",192],["m",184],["s",888],["h",624],["i",224],["r",232],["e",232],["backspace",792],["backspace",176],["backspace",152],["backspace",288],["backspace",256],["p",544],["s",504],["h",104],["i",216],["r",208],["e",200],["ENTER",616]],"recall_words":["new hampshire"],"recall_word_response_times":[1382],"category_target":0,"category_target_string":"","trial_type":"free-recall","trial_index":153,"time_elapsed":1865292,"internal_node_id":"0.0-153.0","data_path":"experiments/category_targeting/cuefr.h5","stimuli_path":"experiments/category_targeting/assets/cuefr_pool.txt","category_path":"experiments/category_targeting/assets/cuefr_labels.txt","subjectId":0},{"load_time":1869376.8999996185,"recall_display_time":1869376.8999996185,"category_cue":"","recall_responses":[["v",5590],["i",320],["o",216],["l",160],["e",104],["t",536],["ENTER",464]],"recall_words":["violet"],"recall_word_response_times":[5590],"category_target":0,"category_target_string":"","trial_type":"free-recall","trial_index":154,"time_elapsed":1872685,"internal_node_id":"0.0-154.0","data_path":"experiments/category_targeting/cuefr.h5","stimuli_path":"experiments/category_targeting/assets/cuefr_pool.txt","category_path":"experiments/category_targeting/assets/cuefr_labels.txt","subjectId":0},{"load_time":1876768.8999996185,"recall_display_time":1876769,"category_cue":"","recall_responses":[["s",6990],["a",200],["n",880],["d",96],["e",256],["r",264],["ENTER",752]],"recall_words":["sander"],"recall_word_response_times":[6990],"category_target":0,"category_target_string":"","trial_type":"free-recall","trial_index":155,"time_elapsed":1882125,"internal_node_id":"0.0-155.0","data_path":"experiments/category_targeting/cuefr.h5","stimuli_path":"experiments/category_targeting/assets/cuefr_pool.txt","category_path":"experiments/category_targeting/assets/cuefr_labels.txt","subjectId":0},{"trial_type":"call-function","trial_index":156,"time_elapsed":1882125,"internal_node_id":"0.0-156.0","data_path":"experiments/category_targeting/cuefr.h5","stimuli_path":"experiments/category_targeting/assets/cuefr_pool.txt","category_path":"experiments/category_targeting/assets/cuefr_labels.txt","subjectId":0},{"view_history":[{"page_index":0,"viewing_time":15047}],"rt":15047,"trial_index":157,"trial_count":20,"message":"<p >When you're ready for the next trial, press Next.</p>","trial_type":"instructions","time_elapsed":1897173,"internal_node_id":"0.0-157.0","data_path":"experiments/category_targeting/cuefr.h5","stimuli_path":"experiments/category_targeting/assets/cuefr_pool.txt","category_path":"experiments/category_targeting/assets/cuefr_labels.txt","subjectId":0},{"trial_type":"call-function","trial_index":158,"time_elapsed":1897174,"internal_node_id":"0.0-158.0","data_path":"experiments/category_targeting/cuefr.h5","stimuli_path":"experiments/category_targeting/assets/cuefr_pool.txt","category_path":"experiments/category_targeting/assets/cuefr_labels.txt","subjectId":0},{"load_time":1901256,"fixation_display_time":1901256,"trial_type":"fixation","trial_index":159,"time_elapsed":1898180,"internal_node_id":"0.0-159.0","data_path":"experiments/category_targeting/cuefr.h5","stimuli_path":"experiments/category_targeting/assets/cuefr_pool.txt","category_path":"experiments/category_targeting/assets/cuefr_labels.txt","subjectId":0},{"load_time":1902262.8999996185,"word_display_times":[1902262.8999996185,1905275.0999994278,1908291.8999996185,1911305.299999237,1914323.8999996185,1917339.0999994278,1920357.6999998093,1923369.0999994278,1926387.8999996185,1929405.799999237,1932421.6999998093,1935435.0999994278,1938453.799999237,1941465.1999998093,1944485.6999998093,1947499.0999994278],"word_list":["ATTIC","CATERPILLAR","TURNIP","HAMSTER","OCEAN","CATFISH","MIAMI","PAPER","ZINC","HARP","HIP","TEPEE","LIME","POT","SUBMARINE","AFGHANISTAN"],"category_list":["BUILDING PARTS","INSECTS","VEGETABLES","FOUR-FOOTED ANIMALS","GEOGRAPHY TERMS","FISH","CITIES","READING MATERIALS","ELEMENTS","INSTRUMENTS","BODY PARTS","DWELLINGS","FRUIT","KITCHEN TOOLS","SHIPS","COUNTRIES"],"trial_type":"item-presentation","trial_index":160,"time_elapsed":1946437,"internal_node_id":"0.0-160.0","data_path":"experiments/category_targeting/cuefr.h5","stimuli_path":"experiments/category_targeting/assets/cuefr_pool.txt","category_path":"experiments/category_targeting/assets/cuefr_labels.txt","subjectId":0},{"load_time":1950523.1999998093,"recall_display_time":1950523.299999237,"category_cue":"READING MATERIALS","recall_responses":[["p",5652],["a",175],["p",104],["e",240],["r",248],["ENTER",328]],"recall_words":["paper"],"recall_word_response_times":[5652],"category_target":381,"category_target_string":"PAPER","trial_type":"free-recall","trial_index":161,"time_elapsed":1953191,"internal_node_id":"0.0-161.0","data_path":"experiments/category_targeting/cuefr.h5","stimuli_path":"experiments/category_targeting/assets/cuefr_pool.txt","category_path":"experiments/category_targeting/assets/cuefr_labels.txt","subjectId":0},{"load_time":1957272.799999237,"recall_display_time":1957272.8999996185,"category_cue":"","recall_responses":[["p",662],["a",120],["p",104],["e",184],["r",248],["ENTER",368]],"recall_words":["paper"],"recall_word_response_times":[662],"category_target":0,"category_target_string":"","trial_type":"free-recall","trial_index":162,"time_elapsed":1954879,"internal_node_id":"0.0-162.0","data_path":"experiments/category_targeting/cuefr.h5","stimuli_path":"experiments/category_targeting/assets/cuefr_pool.txt","category_path":"experiments/category_targeting/assets/cuefr_labels.txt","subjectId":0},{"load_time":1958960.8999996185,"recall_display_time":1958960.8999996185,"category_cue":"GEOGRAPHY TERMS","recall_responses":[["c",10911],["a",200],["n",128],["y",208],["o",520],["n",280],["ENTER",440]],"recall_words":["canyon"],"recall_word_response_times":[10911],"category_target":301,"category_target_string":"OCEAN","trial_type":"free-recall","trial_index":163,"time_elapsed":1967568,"internal_node_id":"0.0-163.0","data_path":"experiments/category_targeting/cuefr.h5","stimuli_path":"experiments/category_targeting/assets/cuefr_pool.txt","category_path":"experiments/category_targeting/assets/cuefr_labels.txt","subjectId":0},{"load_time":1971649,"recall_display_time":1971649,"category_cue":"","recall_responses":[["s",5110],["u",576],["b",616],["m",568],["a",472],["r",344],["i",272],["n",240],["e",224],["ENTER",528]],"recall_words":["submarine"],"recall_word_response_times":[5110],"category_target":0,"category_target_string":"","trial_type":"free-recall","trial_index":164,"time_elapsed":1976520,"internal_node_id":"0.0-164.0","data_path":"experiments/category_targeting/cuefr.h5","stimuli_path":"experiments/category_targeting/assets/cuefr_pool.txt","category_path":"experiments/category_targeting/assets/cuefr_labels.txt","subjectId":0},{"load_time":1980600.799999237,"recall_display_time":1980600.8999996185,"category_cue":"BODY PARTS","recall_responses":[["l",8150],["backspace",744],["t",248],["h",144],["i",240],["g",144],["h",152],["s",560],["ENTER",448]],"recall_words":["thighs"],"recall_word_response_times":[8150],"category_target":30,"category_target_string":"HIP","trial_type":"free-recall","trial_index":165,"time_elapsed":1987352,"internal_node_id":"0.0-165.0","data_path":"experiments/category_targeting/cuefr.h5","stimuli_path":"experiments/category_targeting/assets/cuefr_pool.txt","category_path":"experiments/category_targeting/assets/cuefr_labels.txt","subjectId":0},{"load_time":1991432.799999237,"recall_display_time":1991432.8999996185,"category_cue":"","recall_responses":[["a",1342],["f",368],["g",528],["h",240],["a",240],["n",200],["i",712],["s",160],["t",224],["a",112],["n",768],["ENTER",768]],"recall_words":["afghanistan"],"recall_word_response_times":[1342],"category_target":0,"category_target_string":"","trial_type":"free-recall","trial_index":166,"time_elapsed":1993016,"internal_node_id":"0.0-166.0","data_path":"experiments/category_targeting/cuefr.h5","stimuli_path":"experiments/category_targeting/assets/cuefr_pool.txt","category_path":"experiments/category_targeting/assets/cuefr_labels.txt","subjectId":0},{"trial_type":"call-function","trial_index":167,"time_elapsed":1993016,"internal_node_id":"0.0-167.0","data_path":"experiments/category_targeting/cuefr.h5","stimuli_path":"experiments/category_targeting/assets/cuefr_pool.txt","category_path":"experiments/category_targeting/assets/cuefr_labels.txt","subjectId":0},{"view_history":[{"page_index":0,"viewing_time":9871}],"rt":9871,"trial_index":168,"trial_count":20,"message":"<p >When you're ready for the next trial, press Next.</p>","trial_type":"instructions","time_elapsed":2002889,"internal_node_id":"0.0-168.0","data_path":"experiments/category_targeting/cuefr.h5","stimuli_path":"experiments/category_targeting/assets/cuefr_pool.txt","category_path":"experiments/category_targeting/assets/cuefr_labels.txt","subjectId":0},{"trial_type":"call-function","trial_index":169,"time_elapsed":2002889,"internal_node_id":"0.0-169.0","data_path":"experiments/category_targeting/cuefr.h5","stimuli_path":"experiments/category_targeting/assets/cuefr_pool.txt","category_path":"experiments/category_targeting/assets/cuefr_labels.txt","subjectId":0},{"load_time":2006967.799999237,"fixation_display_time":2006967.799999237,"trial_type":"fixation","trial_index":170,"time_elapsed":2003895,"internal_node_id":"0.0-170.0","data_path":"experiments/category_targeting/cuefr.h5","stimuli_path":"experiments/category_targeting/assets/cuefr_pool.txt","category_path":"experiments/category_targeting/assets/cuefr_labels.txt","subjectId":0},{"load_time":2007974.6999998093,"word_display_times":[2007974.6999998093,2010987.1999998093,2014003.8999996185,2017019.0999994278,2020037.799999237,2023051.1999998093,2026069.6999998093,2029083.0999994278,2032101.799999237,2035115.0999994278,2038133.799999237,2041147.299999237,2044165.799999237,2047179.0999994278,2050196.0999994278,2053211.0999994278],"word_list":["BROWN","CEDAR","NAIL GUN","SPANDEX","HAWK","EARTHQUAKE","PAPRIKA","LAMBORGHINI","RECLINER","IOWA","ACCOUNTANT","WATER POLO","DRESS","CABIN","ISRAEL","RADISH"],"category_list":["COLORS","TREES","CARPENTRY TOOLS","FABRICS","BIRDS","WEATHER TERMS","SEASONINGS","CAR MODELS","FURNITURE","STATES","OCCUPATIONS","SPORTS","CLOTHES","DWELLINGS","COUNTRIES","VEGETABLES"],"trial_type":"item-presentation","trial_index":171,"time_elapsed":2052153,"internal_node_id":"0.0-171.0","data_path":"experiments/category_targeting/cuefr.h5","stimuli_path":"experiments/category_targeting/assets/cuefr_pool.txt","category_path":"experiments/category_targeting/assets/cuefr_labels.txt","subjectId":0},{"load_time":2056235.5,"recall_display_time":2056235.5,"category_cue":"","recall_responses":[["i",2028],["s",184],["r",304],["a",824],["e",336],["l",224],["ENTER",704]],"recall_words":["israel"],"recall_word_response_times":[2028],"category_target":0,"category_target_string":"","trial_type":"free-recall","trial_index":172,"time_elapsed":2056762,"internal_node_id":"0.0-172.0","data_path":"experiments/category_targeting/cuefr.h5","stimuli_path":"experiments/category_targeting/assets/cuefr_pool.txt","category_path":"experiments/category_targeting/assets/cuefr_labels.txt","subjectId":0},{"load_time":2060840.799999237,"recall_display_time":2060840.799999237,"category_cue":"","recall_responses":[["w",774],["a",248],["t",160],["e",144],["r",224],[" ",264],["p",328],["o",224],["l",152],["o",240],["ENTER",648]],"recall_words":["water polo"],"recall_word_response_times":[774],"category_target":0,"category_target_string":"","trial_type":"free-recall","trial_index":173,"time_elapsed":2060170,"internal_node_id":"0.0-173.0","data_path":"experiments/category_targeting/cuefr.h5","stimuli_path":"experiments/category_targeting/assets/cuefr_pool.txt","category_path":"experiments/category_targeting/assets/cuefr_labels.txt","subjectId":0},{"load_time":2064248.799999237,"recall_display_time":2064248.799999237,"category_cue":"","recall_responses":[["i",3758],["o",192],["w",136],["a",208],["ENTER",712]],"recall_words":["iowa"],"recall_word_response_times":[3758],"category_target":0,"category_target_string":"","trial_type":"free-recall","trial_index":174,"time_elapsed":2065178,"internal_node_id":"0.0-174.0","data_path":"experiments/category_targeting/cuefr.h5","stimuli_path":"experiments/category_targeting/assets/cuefr_pool.txt","category_path":"experiments/category_targeting/assets/cuefr_labels.txt","subjectId":0},{"load_time":2069256.6999998093,"recall_display_time":2069256.799999237,"category_cue":"","recall_responses":[["s",7958],["p",192],["a",112],["n",216],["d",464],["e",208],["x",256],["ENTER",696]],"recall_words":["spandex"],"recall_word_response_times":[7958],"category_target":0,"category_target_string":"","trial_type":"free-recall","trial_index":175,"time_elapsed":2075283,"internal_node_id":"0.0-175.0","data_path":"experiments/category_targeting/cuefr.h5","stimuli_path":"experiments/category_targeting/assets/cuefr_pool.txt","category_path":"experiments/category_targeting/assets/cuefr_labels.txt","subjectId":0},{"load_time":2079361,"recall_display_time":2079361,"category_cue":"","recall_responses":[["h",2478],["a",104],["w",192],["k",168],["ENTER",272]],"recall_words":["hawk"],"recall_word_response_times":[2478],"category_target":0,"category_target_string":"","trial_type":"free-recall","trial_index":176,"time_elapsed":2078499,"internal_node_id":"0.0-176.0","data_path":"experiments/category_targeting/cuefr.h5","stimuli_path":"experiments/category_targeting/assets/cuefr_pool.txt","category_path":"experiments/category_targeting/assets/cuefr_labels.txt","subjectId":0},{"load_time":2082576.8999996185,"recall_display_time":2082577.0999994278,"catego