[{"success":true,"rt":8144,"trial_type":"fullscreen","trial_index":0,"time_elapsed":9161,"internal_node_id":"0.0-0.0","data_path":"experiments/category_targeting/cuefr.h5","stimuli_path":"experiments/category_targeting/assets/cuefr_pool.txt","category_path":"experiments/category_targeting/assets/cuefr_labels.txt","subjectId":0},{"view_history":[{"page_index":0,"viewing_time":3201},{"page_index":1,"viewing_time":9467},{"page_index":2,"viewing_time":10544},{"page_index":3,"viewing_time":5628},{"page_index":4,"viewing_time":16455},{"page_index":5,"viewing_time":10327},{"page_index":6,"viewing_time":9855},{"page_index":7,"viewing_time":6148},{"page_index":8,"viewing_time":1684},{"page_index":9,"viewing_time":882},{"page_index":10,"viewing_time":1713},{"page_index":11,"viewing_time":2984},{"page_index":12,"viewing_time":4715},{"page_index":13,"viewing_time":4409},{"page_index":14,"viewing_time":12099},{"page_index":15,"viewing_time":1612},{"page_index":14,"viewing_time":3884},{"page_index":15,"viewing_time":703},{"page_index":16,"viewing_time":5780},{"page_index":17,"viewing_time":2763},{"page_index":18,"viewing_time":4597}],"rt":119451,"trial_type":"instructions","trial_index":1,"time_elapsed":128614,"internal_node_id":"0.0-1.0","data_path":"experiments/category_targeting/cuefr.h5","stimuli_path":"experiments/category_targeting/assets/cuefr_pool.txt","category_path":"experiments/category_targeting/assets/cuefr_labels.txt","subjectId":0},{"view_history":[{"page_index":0,"viewing_time":4132}],"rt":4132,"trial_type":"instructions","trial_index":2,"time_elapsed":132747,"internal_node_id":"0.0-2.0","data_path":"experiments/category_targeting/cuefr.h5","stimuli_path":"experiments/category_targeting/assets/cuefr_pool.txt","category_path":"experiments/category_targeting/assets/cuefr_labels.txt","subjectId":0},{"trial_type":"call-function","trial_index":3,"time_elapsed":132747,"internal_node_id":"0.0-3.0","data_path":"experiments/category_targeting/cuefr.h5","stimuli_path":"experiments/category_targeting/assets/cuefr_pool.txt","category_path":"experiments/category_targeting/assets/cuefr_labels.txt","subjectId":0},{"trial_type":"call-function","trial_index":4,"time_elapsed":132747,"internal_node_id":"0.0-4.0","data_path":"experiments/category_targeting/cuefr.h5","stimuli_path":"experiments/category_targeting/assets/cuefr_pool.txt","category_path":"experiments/category_targeting/assets/cuefr_labels.txt","subjectId":0},{"load_time":145088,"fixation_display_time":145088,"trial_type":"fixation","trial_index":5,"time_elapsed":133757,"internal_node_id":"0.0-5.0","data_path":"experiments/category_targeting/cuefr.h5","stimuli_path":"experiments/category_targeting/assets/cuefr_pool.txt","category_path":"experiments/category_targeting/assets/cuefr_labels.txt","subjectId":0},{"load_time":146098,"word_display_times":[146098,149107,152116,155132,158149,161157],"word_list":["BATHROOM","CATERPILLAR","AUSTRALIA","BLENDER","SANDPAPER","CAULIFLOWER"],"category_list":["BUILDING PARTS","INSECTS","COUNTRIES","KITCHEN TOOLS","CARPENTRY TOOLS","VEGETABLES"],"trial_type":"item-presentation","trial_index":6,"time_elapsed":151838,"internal_node_id":"0.0-6.0","data_path":"experiments/category_targeting/cuefr.h5","stimuli_path":"experiments/category_targeting/assets/cuefr_pool.txt","category_path":"experiments/category_targeting/assets/cuefr_labels.txt","subjectId":0},{"load_time":164194,"recall_display_time":164194,"category_cue":"","recall_responses":[["b",2248],["a",756],["t",479],["h",249],["r",360],["o",484],["o",199],["m",428],["ENTER",1350]],"recall_words":["bathroom"],"recall_word_response_times":[2248],"category_target":0,"category_target_string":"","trial_type":"free-recall","trial_index":7,"time_elapsed":158407,"internal_node_id":"0.0-7.0","data_path":"experiments/category_targeting/cuefr.h5","stimuli_path":"experiments/category_targeting/assets/cuefr_pool.txt","category_path":"experiments/category_targeting/assets/cuefr_labels.txt","subjectId":0},{"load_time":170749,"recall_display_time":170749,"category_cue":"","recall_responses":[["c",3090],["a",399],["r",421],["a",312],["p",736],["i",262],["l",233],["i",202],["t",298],["e",296],["r",215],["ENTER",664],["a",1625],["u",551],["s",368],["t",421],["r",217],["a",293],["i",563],["l",288],["l",178],["a",501],["ENTER",680],["s",2429],["a",236],["n",517],["d",358],["p",809],["a",484],["p",551],["e",477],["r",200],["ENTER",459]],"recall_words":["carapiliter","austrailla","sandpaper"],"recall_word_response_times":[3090,1625,2429],"category_target":"","category_target_string":"","trial_type":"free-recall","trial_index":8,"time_elapsed":188411,"internal_node_id":"0.0-8.0","data_path":"experiments/category_targeting/cuefr.h5","stimuli_path":"experiments/category_targeting/assets/cuefr_pool.txt","category_path":"experiments/category_targeting/assets/cuefr_labels.txt","subjectId":0},{"trial_type":"call-function","trial_index":9,"time_elapsed":188412,"internal_node_id":"0.0-9.0","data_path":"experiments/category_targeting/cuefr.h5","stimuli_path":"experiments/category_targeting/assets/cuefr_pool.txt","category_path":"experiments/category_targeting/assets/cuefr_labels.txt","subjectId":0},{"view_history":[{"page_index":0,"viewing_time":14495}],"rt":14495,"trial_index":10,"trial_count":20,"message":"<p >You've completed the first trial! Please click the right arrow on your keyboard to proceed to the next trial.</p>","trial_type":"instructions","time_elapsed":202908,"internal_node_id":"0.0-10.0","data_path":"experiments/category_targeting/cuefr.h5","stimuli_path":"experiments/category_targeting/assets/cuefr_pool.txt","category_path":"experiments/category_targeting/assets/cuefr_labels.txt","subjectId":0},{"trial_type":"call-function","trial_index":11,"time_elapsed":202909,"internal_node_id":"0.0-11.0","data_path":"experiments/category_targeting/cuefr.h5","stimuli_path":"experiments/category_targeting/assets/cuefr_pool.txt","category_path":"experiments/category_targeting/assets/cuefr_labels.txt","subjectId":0},{"load_time":215249,"fixation_display_time":215249,"trial_type":"fixation","trial_index":12,"time_elapsed":203912,"internal_node_id":"0.0-12.0","data_path":"experiments/category_targeting/cuefr.h5","stimuli_path":"experiments/category_targeting/assets/cuefr_pool.txt","category_path":"experiments/category_targeting/assets/cuefr_labels.txt","subjectId":0},{"load_time":216253,"word_display_times":[216253,219262,222276,225281,228297,231317],"word_list":["HELIUM","KETCHUP","LILY","FUCHSIA","ATHLETE","OTTOMAN"],"category_list":["ELEMENTS","SEASONINGS","FLOWERS","COLORS","OCCUPATIONS","FURNITURE"],"trial_type":"item-presentation","trial_index":13,"time_elapsed":221986,"internal_node_id":"0.0-13.0","data_path":"experiments/category_targeting/cuefr.h5","stimuli_path":"experiments/category_targeting/assets/cuefr_pool.txt","category_path":"experiments/category_targeting/assets/cuefr_labels.txt","subjectId":0},{"load_time":234342,"recall_display_time":234342,"category_cue":"","recall_responses":[["o",1261],["t",375],["t",197],["a",646],["m",516],["a",464],["n",492],["ENTER",738]],"recall_words":["ottaman"],"recall_word_response_times":[1261],"category_target":0,"category_target_string":"","trial_type":"free-recall","trial_index":14,"time_elapsed":226691,"internal_node_id":"0.0-14.0","data_path":"experiments/category_targeting/cuefr.h5","stimuli_path":"experiments/category_targeting/assets/cuefr_pool.txt","category_path":"experiments/category_targeting/assets/cuefr_labels.txt","subjectId":0},{"load_time":239033,"recall_display_time":239033,"category_cue":"","recall_responses":[["k",1008],["e",419],["t",330],["c",256],["h",404],["u",324],["p",428],["ENTER",387],["f",897],["u",553],["s",675],["c",281],["h",452],["i",290],["a",563],["ENTER",638],["l",745],["i",225],["l",243],["l",173],["y",580],["ENTER",264],["o",9388],["a",509],["t",386],["m",372],["a",474],["n",446],["ENTER",286]],"recall_words":["ketchup","fuschia","lilly","oatman"],"recall_word_response_times":[1008,897,745,9388],"category_target":"","category_target_string":"","trial_type":"free-recall","trial_index":15,"time_elapsed":256704,"internal_node_id":"0.0-15.0","data_path":"experiments/category_targeting/cuefr.h5","stimuli_path":"experiments/category_targeting/assets/cuefr_pool.txt","category_path":"experiments/category_targeting/assets/cuefr_labels.txt","subjectId":0},{"trial_type":"call-function","trial_index":16,"time_elapsed":256705,"internal_node_id":"0.0-16.0","data_path":"experiments/category_targeting/cuefr.h5","stimuli_path":"experiments/category_targeting/assets/cuefr_pool.txt","category_path":"experiments/category_targeting/assets/cuefr_labels.txt","subjectId":0},{"view_history":[{"page_index":0,"viewing_time":3479}],"rt":3479,"trial_index":17,"trial_count":20,"message":"<p >When you're ready for the next trial, press Next.</p>","trial_type":"instructions","time_elapsed":260184,"internal_node_id":"0.0-17.0","data_path":"experiments/category_targeting/cuefr.h5","stimuli_path":"experiments/category_targeting/assets/cuefr_pool.txt","category_path":"experiments/category_targeting/assets/cuefr_labels.txt","subjectId":0},{"trial_type":"call-function","trial_index":18,"time_elapsed":260185,"internal_node_id":"0.0-18.0","data_path":"experiments/category_targeting/cuefr.h5","stimuli_path":"experiments/category_targeting/assets/cuefr_pool.txt","category_path":"experiments/category_targeting/assets/cuefr_labels.txt","subjectId":0},{"load_time":272525,"fixation_display_time":272525,"trial_type":"fixation","trial_index":19,"time_elapsed":261188,"internal_node_id":"0.0-19.0","data_path":"experiments/category_targeting/cuefr.h5","stimuli_path":"experiments/category_targeting/assets/cuefr_pool.txt","category_path":"experiments/category_targeting/assets/cuefr_labels.txt","subjectId":0},{"load_time":273528,"word_display_times":[273528,276537,279557,282583,285608,288615],"word_list":["SCHOONER","MOTH","CAPTAIN","SUNSHINE","PAMPHLET","SQUIRREL"],"category_list":["SHIPS","INSECTS","MILITARY TITLES","WEATHER TERMS","READING MATERIALS","FOUR-FOOTED ANIMALS"],"trial_type":"item-presentation","trial_index":20,"time_elapsed":279299,"internal_node_id":"0.0-20.0","data_path":"experiments/category_targeting/cuefr.h5","stimuli_path":"experiments/category_targeting/assets/cuefr_pool.txt","category_path":"experiments/category_targeting/assets/cuefr_labels.txt","subjectId":0},{"load_time":291655,"recall_display_time":291655,"category_cue":"WEATHER TERMS","recall_responses":[["p",1466],["h",360],["a",426],["m",578],["p",368],["l",212],["e",413],["t",307],["ENTER",370]],"recall_words":["phamplet"],"recall_word_response_times":[1466],"category_target":510,"category_target_string":"SUNSHINE","trial_type":"free-recall","trial_index":21,"time_elapsed":283816,"internal_node_id":"0.0-21.0","data_path":"experiments/category_targeting/cuefr.h5","stimuli_path":"experiments/category_targeting/assets/cuefr_pool.txt","category_path":"experiments/category_targeting/assets/cuefr_labels.txt","subjectId":0},{"load_time":296158,"recall_display_time":296158,"category_cue":"","recall_responses":[["s",626],["u",524],["n",233],["s",418],["h",422],["i",375],["n",233],["e",316],["ENTER",335],["s",15891],["c",213],["h",152],["o",367],["o",211],["s",510],["e",1194],["r",199],["ENTER",105],["c",4030],["a",268],["p",168],["i",241],["t",153],["a",1016],["i",201],["n",220],["ENTER",232]],"recall_words":["sunshine","schooser","capitain"],"recall_word_response_times":[626,15891,4030],"category_target":"","category_target_string":"","trial_type":"free-recall","trial_index":22,"time_elapsed":313830,"internal_node_id":"0.0-22.0","data_path":"experiments/category_targeting/cuefr.h5","stimuli_path":"experiments/category_targeting/assets/cuefr_pool.txt","category_path":"experiments/category_targeting/assets/cuefr_labels.txt","subjectId":0},{"trial_type":"call-function","trial_index":23,"time_elapsed":313830,"internal_node_id":"0.0-23.0","data_path":"experiments/category_targeting/cuefr.h5","stimuli_path":"experiments/category_targeting/assets/cuefr_pool.txt","category_path":"experiments/category_targeting/assets/cuefr_labels.txt","subjectId":0},{"view_history":[{"page_index":0,"viewing_time":10573}],"rt":10574,"trial_index":24,"trial_count":20,"message":"<p >When you're ready for the next trial, press Next.</p>","trial_type":"instructions","time_elapsed":324404,"internal_node_id":"0.0-24.0","data_path":"experiments/category_targeting/cuefr.h5","stimuli_path":"experiments/category_targeting/assets/cuefr_pool.txt","category_path":"experiments/category_targeting/assets/cuefr_labels.txt","subjectId":0},{"trial_type":"call-function","trial_index":25,"time_elapsed":324404,"internal_node_id":"0.0-25.0","data_path":"experiments/category_targeting/cuefr.h5","stimuli_path":"experiments/category_targeting/assets/cuefr_pool.txt","category_path":"experiments/category_targeting/assets/cuefr_labels.txt","subjectId":0},{"load_time":336745,"fixation_display_time":336745,"trial_type":"fixation","trial_index":26,"time_elapsed":325414,"internal_node_id":"0.0-26.0","data_path":"experiments/category_targeting/cuefr.h5","stimuli_path":"experiments/category_targeting/assets/cuefr_pool.txt","category_path":"experiments/category_targeting/assets/cuefr_labels.txt","subjectId":0},{"load_time":337754,"word_display_times":[337754,340770,343793,346812,349826,352853],"word_list":["HAT","TAN","CALCIUM","END TABLE","CAVE","LACROSSE"],"category_list":["CLOTHES","COLORS","ELEMENTS","FURNITURE","GEOGRAPHY TERMS","SPORTS"],"trial_type":"item-presentation","trial_index":27,"time_elapsed":343531,"internal_node_id":"0.0-27.0","data_path":"experiments/category_targeting/cuefr.h5","stimuli_path":"experiments/category_targeting/assets/cuefr_pool.txt","category_path":"experiments/category_targeting/assets/cuefr_labels.txt","subjectId":0},{"load_time":355882,"recall_display_time":355882,"category_cue":"GEOGRAPHY TERMS","recall_responses":[],"recall_words":[],"recall_word_response_times":[],"category_target":293,"category_target_string":"CAVE","trial_type":"free-recall","trial_index":28,"time_elapsed":353549,"internal_node_id":"0.0-28.0","data_path":"experiments/category_targeting/cuefr.h5","stimuli_path":"experiments/category_targeting/assets/cuefr_pool.txt","category_path":"experiments/category_targeting/assets/cuefr_labels.txt","subjectId":0},{"load_time":365899,"recall_display_time":365899,"category_cue":"","recall_responses":[["e",3094],["n",154],["d",118],[" ",417],["t",904],["a",111],["b",903],["l",412],["e",176],["ENTER",205],["c",2888],["a",306],["l",225],["c",169],["u",373],["i",212],["m",271],["ENTER",337],["h",649],["a",105],["t",454],["ENTER",372],["t",321],["a",338],["n",152],["ENTER",224]],"recall_words":["end table","calcuim","hat","tan"],"recall_word_response_times":[3094,2888,649,321],"category_target":"","category_target_string":"","trial_type":"free-recall","trial_index":29,"time_elapsed":383561,"internal_node_id":"0.0-29.0","data_path":"experiments/category_targeting/cuefr.h5","stimuli_path":"experiments/category_targeting/assets/cuefr_pool.txt","category_path":"experiments/category_targeting/assets/cuefr_labels.txt","subjectId":0},{"trial_type":"call-function","trial_index":30,"time_elapsed":383561,"internal_node_id":"0.0-30.0","data_path":"experiments/category_targeting/cuefr.h5","stimuli_path":"experiments/category_targeting/assets/cuefr_pool.txt","category_path":"experiments/category_targeting/assets/cuefr_labels.txt","subjectId":0},{"view_history":[{"page_index":0,"viewing_time":5579}],"rt":5579,"trial_index":31,"trial_count":20,"message":"<p >When you're ready for the next trial, press Next.</p>","trial_type":"instructions","time_elapsed":389141,"internal_node_id":"0.0-31.0","data_path":"experiments/category_targeting/cuefr.h5","stimuli_path":"experiments/category_targeting/assets/cuefr_pool.txt","category_path":"experiments/category_targeting/assets/cuefr_labels.txt","subjectId":0},{"trial_type":"call-function","trial_index":32,"time_elapsed":389142,"internal_node_id":"0.0-32.0","data_path":"experiments/category_targeting/cuefr.h5","stimuli_path":"experiments/category_targeting/assets/cuefr_pool.txt","category_path":"experiments/category_targeting/assets/cuefr_labels.txt","subjectId":0},{"load_time":401482,"fixation_display_time":401482,"trial_type":"fixation","trial_index":33,"time_elapsed":390157,"internal_node_id":"0.0-33.0","data_path":"experiments/category_targeting/cuefr.h5","stimuli_path":"experiments/category_targeting/assets/cuefr_pool.txt","category_path":"experiments/category_targeting/assets/cuefr_labels.txt","subjectId":0},{"load_time":402497,"word_display_times":[402497,405506,408535,411552,414575,417589],"word_list":["CHILE","DRILL","ELM","PARSLEY","STUDENT","DETROIT"],"category_list":["COUNTRIES","CARPENTRY TOOLS","TREES","SEASONINGS","OCCUPATIONS","CITIES"],"trial_type":"item-presentation","trial_index":34,"time_elapsed":408252,"internal_node_id":"0.0-34.0","data_path":"experiments/category_targeting/cuefr.h5","stimuli_path":"experiments/category_targeting/assets/cuefr_pool.txt","category_path":"experiments/category_targeting/assets/cuefr_labels.txt","subjectId":0},{"load_time":420608,"recall_display_time":420608,"category_cue":"CARPENTRY TOOLS","recall_responses":[],"recall_words":[],"recall_word_response_times":[],"category_target":78,"category_target_string":"DRILL","trial_type":"free-recall","trial_index":35,"time_elapsed":418275,"internal_node_id":"0.0-35.0","data_path":"experiments/category_targeting/cuefr.h5","stimuli_path":"experiments/category_targeting/assets/cuefr_pool.txt","category_path":"experiments/category_targeting/assets/cuefr_labels.txt","subjectId":0},{"load_time":430631,"recall_display_time":430631,"category_cue":"","recall_responses":[["e",837],["l",630],["m",212],["ENTER",332],["c",504],["h",203],["i",269],["l",257],["l",155],["i",562],["e",123],["ENTER",248]],"recall_words":["elm","chillie"],"recall_word_response_times":[837,504],"category_target":"","category_target_string":"","trial_type":"free-recall","trial_index":36,"time_elapsed":448293,"internal_node_id":"0.0-36.0","data_path":"experiments/category_targeting/cuefr.h5","stimuli_path":"experiments/category_targeting/assets/cuefr_pool.txt","category_path":"experiments/category_targeting/assets/cuefr_labels.txt","subjectId":0},{"trial_type":"call-function","trial_index":37,"time_elapsed":448293,"internal_node_id":"0.0-37.0","data_path":"experiments/category_targeting/cuefr.h5","stimuli_path":"experiments/category_targeting/assets/cuefr_pool.txt","category_path":"experiments/category_targeting/assets/cuefr_labels.txt","subjectId":0},{"view_history":[{"page_index":0,"viewing_time":3831}],"rt":3831,"trial_index":38,"trial_count":20,"message":"<p >When you're ready for the next trial, press Next.</p>","trial_type":"instructions","time_elapsed":452126,"internal_node_id":"0.0-38.0","data_path":"experiments/category_targeting/cuefr.h5","stimuli_path":"experiments/category_targeting/assets/cuefr_pool.txt","category_path":"experiments/category_targeting/assets/cuefr_labels.txt","subjectId":0},{"trial_type":"call-function","trial_index":39,"time_elapsed":452126,"internal_node_id":"0.0-39.0","data_path":"experiments/category_targeting/cuefr.h5","stimuli_path":"experiments/category_targeting/assets/cuefr_pool.txt","category_path":"experiments/category_targeting/assets/cuefr_labels.txt","subjectId":0},{"load_time":464466,"fixation_display_time":464466,"trial_type":"fixation","trial_index":40,"time_elapsed":453138,"internal_node_id":"0.0-40.0","data_path":"experiments/category_targeting/cuefr.h5","stimuli_path":"experiments/category_targeting/assets/cuefr_pool.txt","category_path":"experiments/category_targeting/assets/cuefr_labels.txt","subjectId":0},{"load_time":465479,"word_display_times":[465479,468502,471519,474534,477543,480568],"word_list":["PEAR","ASPARAGUS","TEA","BUTTERFLY","JOURNAL","WHISK"],"category_list":["FRUIT","VEGETABLES","BEVERAGES","INSECTS","READING MATERIALS","KITCHEN TOOLS"],"trial_type":"item-presentation","trial_index":41,"time_elapsed":471245,"internal_node_id":"0.0-41.0","data_path":"experiments/category_targeting/cuefr.h5","stimuli_path":"experiments/category_targeting/assets/cuefr_pool.txt","category_path":"experiments/category_targeting/assets/cuefr_labels.txt","subjectId":0},{"load_time":483600,"recall_display_time":483600,"category_cue":"BEVERAGES","recall_responses":[["w",2332],["h",225],["i",288],["s",130],["k",221],["y",300],["ENTER",318]],"recall_words":["whisky"],"recall_word_response_times":[2332],"category_target":550,"category_target_string":"TEA","trial_type":"free-recall","trial_index":42,"time_elapsed":475076,"internal_node_id":"0.0-42.0","data_path":"experiments/category_targeting/cuefr.h5","stimuli_path":"experiments/category_targeting/assets/cuefr_pool.txt","category_path":"experiments/category_targeting/assets/cuefr_labels.txt","subjectId":0},{"load_time":487418,"recall_display_time":487418,"category_cue":"","recall_responses":[["a",1975],["s",221],["p",174],["a",246],["r",348],["u",312],["g",201],["u",116],["s",177],["ENTER",329],["t",1237],["e",241],["a",255],["ENTER",363],["b",634],["u",291],["t",161],["t",205],["e",256],["r",195],["f",218],["l",232],["y",390],["ENTER",338]],"recall_words":["asparugus","tea","butterfly"],"recall_word_response_times":[1975,1237,634],"category_target":"","category_target_string":"","trial_type":"free-recall","trial_index":43,"time_elapsed":505083,"internal_node_id":"0.0-43.0","data_path":"experiments/category_targeting/cuefr.h5","stimuli_path":"experiments/category_targeting/assets/cuefr_pool.txt","category_path":"experiments/category_targeting/assets/cuefr_labels.txt","subjectId":0},{"trial_type":"call-function","trial_index":44,"time_elapsed":505083,"internal_node_id":"0.0-44.0","data_path":"experiments/category_targeting/cuefr.h5","stimuli_path":"experiments/category_targeting/assets/cuefr_pool.txt","category_path":"experiments/category_targeting/assets/cuefr_labels.txt","subjectId":0},{"view_history":[{"page_index":0,"viewing_time":5735}],"rt":5735,"trial_index":45,"trial_count":20,"message":"<p >When you're ready for the next trial, press Next.</p>","trial_type":"instructions","time_elapsed":510818,"internal_node_id":"0.0-45.0","data_path":"experiments/category_targeting/cuefr.h5","stimuli_path":"experiments/category_targeting/assets/cuefr_pool.txt","category_path":"experiments/category_targeting/assets/cuefr_labels.txt","subjectId":0},{"trial_type":"call-function","trial_index":46,"time_elapsed":510819,"internal_node_id":"0.0-46.0","data_path":"experiments/category_targeting/cuefr.h5","stimuli_path":"experiments/category_targeting/assets/cuefr_pool.txt","category_path":"experiments/category_targeting/assets/cuefr_labels.txt","subjectId":0},{"load_time":523159,"fixation_display_time":523159,"trial_type":"fixation","trial_index":47,"time_elapsed":511829,"internal_node_id":"0.0-47.0","data_path":"experiments/category_targeting/cuefr.h5","stimuli_path":"experiments/category_targeting/assets/cuefr_pool.txt","category_path":"experiments/category_targeting/assets/cuefr_labels.txt","subjectId":0},{"load_time":524170,"word_display_times":[524170,527183,530201,533230,536246,539251],"word_list":["ADMIRAL","RAIN","SULFUR","ARGENTINA","HYUNDAI","NIGHTSTAND"],"category_list":["MILITARY TITLES","WEATHER TERMS","ELEMENTS","COUNTRIES","CAR MODELS","FURNITURE"],"trial_type":"item-presentation","trial_index":48,"time_elapsed":529926,"internal_node_id":"0.0-48.0","data_path":"experiments/category_targeting/cuefr.h5","stimuli_path":"experiments/category_targeting/assets/cuefr_pool.txt","category_path":"experiments/category_targeting/assets/cuefr_labels.txt","subjectId":0},{"load_time":542282,"recall_display_time":542282,"category_cue":"","recall_responses":[["n",1623],["i",262],["g",213],["h",169],["t",135],["s",276],["t",320],["a",307],["n",293],["d",131],["ENTER",195]],"recall_words":["nightstand"],"recall_word_response_times":[1623],"category_target":0,"category_target_string":"","trial_type":"free-recall","trial_index":49,"time_elapsed":533868,"internal_node_id":"0.0-49.0","data_path":"experiments/category_targeting/cuefr.h5","stimuli_path":"experiments/category_targeting/assets/cuefr_pool.txt","category_path":"experiments/category_targeting/assets/cuefr_labels.txt","subjectId":0},{"load_time":546210,"recall_display_time":546210,"category_cue":"","recall_responses":[["h",17350],["e",160],["l",747],["i",445],["u",215],["m",222],["ENTER",265],["c",3781],["a",304],["r",293],["ENTER",221]],"recall_words":["helium","car"],"recall_word_response_times":[17350,3781],"category_target":"","category_target_string":"","trial_type":"free-recall","trial_index":50,"time_elapsed":563879,"internal_node_id":"0.0-50.0","data_path":"experiments/category_targeting/cuefr.h5","stimuli_path":"experiments/category_targeting/assets/cuefr_pool.txt","category_path":"experiments/category_targeting/assets/cuefr_labels.txt","subjectId":0},{"trial_type":"call-function","trial_index":51,"time_elapsed":563879,"internal_node_id":"0.0-51.0","data_path":"experiments/category_targeting/cuefr.h5","stimuli_path":"experiments/category_targeting/assets/cuefr_pool.txt","category_path":"experiments/category_targeting/assets/cuefr_labels.txt","subjectId":0},{"view_history":[{"page_index":0,"viewing_time":3802}],"rt":3802,"trial_index":52,"trial_count":20,"message":"<p >When you're ready for the next trial, press Next.</p>","trial_type":"instructions","time_elapsed":567682,"internal_node_id":"0.0-52.0","data_path":"experiments/category_targeting/cuefr.h5","stimuli_path":"experiments/category_targeting/assets/cuefr_pool.txt","category_path":"experiments/category_targeting/assets/cuefr_labels.txt","subjectId":0},{"trial_type":"call-function","trial_index":53,"time_elapsed":567683,"internal_node_id":"0.0-53.0","data_path":"experiments/category_targeting/cuefr.h5","stimuli_path":"experiments/category_targeting/assets/cuefr_pool.txt","category_path":"experiments/category_targeting/assets/cuefr_labels.txt","subjectId":0},{"load_time":580023,"fixation_display_time":580023,"trial_type":"fixation","trial_index":54,"time_elapsed":568688,"internal_node_id":"0.0-54.0","data_path":"experiments/category_targeting/cuefr.h5","stimuli_path":"experiments/category_targeting/assets/cuefr_pool.txt","category_path":"experiments/category_targeting/assets/cuefr_labels.txt","subjectId":0},{"load_time":581029,"word_display_times":[581029,584037,587056,590061,593079,596092],"word_list":["FRENCH HORN","LACE","BLOUSE","BASIL","WASP","SEQUOIA"],"category_list":["INSTRUMENTS","FABRICS","CLOTHES","SEASONINGS","INSECTS","TREES"],"trial_type":"item-presentation","trial_index":55,"time_elapsed":586781,"internal_node_id":"0.0-55.0","data_path":"experiments/category_targeting/cuefr.h5","stimuli_path":"experiments/category_targeting/assets/cuefr_pool.txt","category_path":"experiments/category_targeting/assets/cuefr_labels.txt","subjectId":0},{"load_time":599137,"recall_display_time":599138,"category_cue":"SEASONINGS","recall_responses":[["s",2614],["e",268],["q",378],["u",662],["i",220],["o",254],["ENTER",323]],"recall_words":["sequio"],"recall_word_response_times":[2614],"category_target":385,"category_target_string":"BASIL","trial_type":"free-recall","trial_index":56,"time_elapsed":591519,"internal_node_id":"0.0-56.0","data_path":"experiments/category_targeting/cuefr.h5","stimuli_path":"experiments/category_targeting/assets/cuefr_pool.txt","category_path":"experiments/category_targeting/assets/cuefr_labels.txt","subjectId":0},{"load_time":603860,"recall_display_time":603860,"category_cue":"","recall_responses":[["l",3150],["a",270],["c",264],["e",251],["ENTER",163],["ENTER",12462]],"recall_words":["lace",""],"recall_word_response_times":[3150],"category_target":"","category_target_string":"","trial_type":"free-recall","trial_index":57,"time_elapsed":621530,"internal_node_id":"0.0-57.0","data_path":"experiments/category_targeting/cuefr.h5","stimuli_path":"experiments/category_targeting/assets/cuefr_pool.txt","category_path":"experiments/category_targeting/assets/cuefr_labels.txt","subjectId":0},{"trial_type":"call-function","trial_index":58,"time_elapsed":621530,"internal_node_id":"0.0-58.0","data_path":"experiments/category_targeting/cuefr.h5","stimuli_path":"experiments/category_targeting/assets/cuefr_pool.txt","category_path":"experiments/category_targeting/assets/cuefr_labels.txt","subjectId":0},{"view_history":[{"page_index":0,"viewing_time":4823}],"rt":4823,"trial_index":59,"trial_count":20,"message":"<p >When you're ready for the next trial, press Next.</p>","trial_type":"instructions","time_elapsed":626352,"internal_node_id":"0.0-59.0","data_path":"experiments/category_targeting/cuefr.h5","stimuli_path":"experiments/category_targeting/assets/cuefr_pool.txt","category_path":"experiments/category_targeting/assets/cuefr_labels.txt","subjectId":0},{"trial_type":"call-function","trial_index":60,"time_elapsed":626353,"internal_node_id":"0.0-60.0","data_path":"experiments/category_targeting/cuefr.h5","stimuli_path":"experiments/category_targeting/assets/cuefr_pool.txt","category_path":"experiments/category_targeting/assets/cuefr_labels.txt","subjectId":0},{"load_time":638693,"fixation_display_time":638693,"trial_type":"fixation","trial_index":61,"time_elapsed":627356,"internal_node_id":"0.0-61.0","data_path":"experiments/category_targeting/cuefr.h5","stimuli_path":"experiments/category_targeting/assets/cuefr_pool.txt","category_path":"experiments/category_targeting/assets/cuefr_labels.txt","subjectId":0},{"load_time":639695,"word_display_times":[639695,642717,645939,648944,651965,654998],"word_list":["KOOL AID","TEXTBOOK","TOASTER","TIGER","SNOW","BORON"],"category_list":["BEVERAGES","READING MATERIALS","KITCHEN TOOLS","FOUR-FOOTED ANIMALS","WEATHER TERMS","ELEMENTS"],"trial_type":"item-presentation","trial_index":62,"time_elapsed":645685,"internal_node_id":"0.0-62.0","data_path":"experiments/category_targeting/cuefr.h5","stimuli_path":"experiments/category_targeting/assets/cuefr_pool.txt","category_path":"experiments/category_targeting/assets/cuefr_labels.txt","subjectId":0},{"load_time":658042,"recall_display_time":658042,"category_cue":"KITCHEN TOOLS","recall_responses":[["t",8939],["e",311],["x",357]],"recall_words":["tex"],"recall_word_response_times":[8939,0],"category_target":350,"category_target_string":"TOASTER","trial_type":"free-recall","trial_index":63,"time_elapsed":655705,"internal_node_id":"0.0-63.0","data_path":"experiments/category_targeting/cuefr.h5","stimuli_path":"experiments/category_targeting/assets/cuefr_pool.txt","category_path":"experiments/category_targeting/assets/cuefr_labels.txt","subjectId":0},{"load_time":668063,"recall_display_time":668063,"category_cue":"","recall_responses":[["t",24],["e",1094],["x",546],["t",320],["b",394],["o",208],["o",210],["k",259],["ENTER",258],["k",665],["o",259],["o",191],["l",301],[" ",436],["a",172],["i",291],["d",83],["ENTER",242],["b",715],["o",247],["r",126],["o",145],["n",239],["ENTER",229],["t",6072],["e",361],["x",283],["t",375],["b",365],["o",296],["o",183],["k",191],["ENTER",238],["s",1077],["n",236],["o",245],["w",150],["ENTER",173]],"recall_words":["textbook","kool aid","boron","textbook","snow"],"recall_word_response_times":[24,665,715,6072,1077],"category_target":"","category_target_string":"","trial_type":"free-recall","trial_index":64,"time_elapsed":685738,"internal_node_id":"0.0-64.0","data_path":"experiments/category_targeting/cuefr.h5","stimuli_path":"experiments/category_targeting/assets/cuefr_pool.txt","category_path":"experiments/category_targeting/assets/cuefr_labels.txt","subjectId":0},{"trial_type":"call-function","trial_index":65,"time_elapsed":685739,"internal_node_id":"0.0-65.0","data_path":"experiments/category_targeting/cuefr.h5","stimuli_path":"experiments/category_targeting/assets/cuefr_pool.txt","category_path":"experiments/category_targeting/assets/cuefr_labels.txt","subjectId":0},{"view_history":[{"page_index":0,"viewing_time":5478}],"rt":5478,"trial_index":66,"trial_count":20,"message":"<p >When you're ready for the next trial, press Next.</p>","trial_type":"instructions","time_elapsed":691218,"internal_node_id":"0.0-66.0","data_path":"experiments/category_targeting/cuefr.h5","stimuli_path":"experiments/category_targeting/assets/cuefr_pool.txt","category_path":"experiments/category_targeting/assets/cuefr_labels.txt","subjectId":0},{"trial_type":"call-function","trial_index":67,"time_elapsed":691218,"internal_node_id":"0.0-67.0","data_path":"experiments/category_targeting/cuefr.h5","stimuli_path":"experiments/category_targeting/assets/cuefr_pool.txt","category_path":"experiments/category_targeting/assets/cuefr_labels.txt","subjectId":0},{"load_time":703558,"fixation_display_time":703558,"trial_type":"fixation","trial_index":68,"time_elapsed":692233,"internal_node_id":"0.0-68.0","data_path":"experiments/category_targeting/cuefr.h5","stimuli_path":"experiments/category_targeting/assets/cuefr_pool.txt","category_path":"experiments/category_targeting/assets/cuefr_labels.txt","subjectId":0},{"load_time":704574,"word_display_times":[704574,707602,710622,713639,716657,719672],"word_list":["LOS ANGELES","LOBBY","KIWI","FALCON","CURRY","ELBOW"],"category_list":["CITIES","BUILDING PARTS","FRUIT","BIRDS","SEASONINGS","BODY PARTS"],"trial_type":"item-presentation","trial_index":69,"time_elapsed":710348,"internal_node_id":"0.0-69.0","data_path":"experiments/category_targeting/cuefr.h5","stimuli_path":"experiments/category_targeting/assets/cuefr_pool.txt","category_path":"experiments/category_targeting/assets/cuefr_labels.txt","subjectId":0},{"load_time":722704,"recall_display_time":722704,"category_cue":"BUILDING PARTS","recall_responses":[["l",2617],["o",230],["b",477],["b",202],["y",745],["ENTER",329]],"recall_words":["lobby"],"recall_word_response_times":[2617],"category_target":51,"category_target_string":"LOBBY","trial_type":"free-recall","trial_index":70,"time_elapsed":714966,"internal_node_id":"0.0-70.0","data_path":"experiments/category_targeting/cuefr.h5","stimuli_path":"experiments/category_targeting/assets/cuefr_pool.txt","category_path":"experiments/category_targeting/assets/cuefr_labels.txt","subjectId":0},{"load_time":727307,"recall_display_time":727307,"category_cue":"","recall_responses":[["l",638],["o",222],["s",162],[" ",196],["a",145],["n",350],["g",342],["l",223],["e",147],["s",207],["ENTER",609],["e",13794],["l",266],["b",278],["o",423],["w",235],["ENTER",165]],"recall_words":["los angles","elbow"],"recall_word_response_times":[638,13794],"category_target":"","category_target_string":"","trial_type":"free-recall","trial_index":71,"time_elapsed":744972,"internal_node_id":"0.0-71.0","data_path":"experiments/category_targeting/cuefr.h5","stimuli_path":"experiments/category_targeting/assets/cuefr_pool.txt","category_path":"experiments/category_targeting/assets/cuefr_labels.txt","subjectId":0},{"trial_type":"call-function","trial_index":72,"time_elapsed":744972,"internal_node_id":"0.0-72.0","data_path":"experiments/category_targeting/cuefr.h5","stimuli_path":"experiments/category_targeting/assets/cuefr_pool.txt","category_path":"experiments/category_targeting/assets/cuefr_labels.txt","subjectId":0},{"view_history":[{"page_index":0,"viewing_time":3912}],"rt":3912,"trial_index":73,"trial_count":20,"message":"<p >When you're ready for the next trial, press Next.</p>","trial_type":"instructions","time_elapsed":748884,"internal_node_id":"0.0-73.0","data_path":"experiments/category_targeting/cuefr.h5","stimuli_path":"experiments/category_targeting/assets/cuefr_pool.txt","category_path":"experiments/category_targeting/assets/cuefr_labels.txt","subjectId":0},{"trial_type":"call-function","trial_index":74,"time_elapsed":748884,"internal_node_id":"0.0-74.0","data_path":"experiments/category_targeting/cuefr.h5","stimuli_path":"experiments/category_targeting/assets/cuefr_pool.txt","category_path":"experiments/category_targeting/assets/cuefr_labels.txt","subjectId":0},{"load_time":761224,"fixation_display_time":761224,"trial_type":"fixation","trial_index":75,"time_elapsed":749897,"internal_node_id":"0.0-75.0","data_path":"experiments/category_targeting/cuefr.h5","stimuli_path":"experiments/category_targeting/assets/cuefr_pool.txt","category_path":"experiments/category_targeting/assets/cuefr_labels.txt","subjectId":0},{"load_time":762238,"word_display_times":[762238,765262,768291,771300,774315,777320],"word_list":["FLOOD","PETUNIA","KANSAS","HOTEL","NAIL GUN","DENIM"],"category_list":["WEATHER TERMS","FLOWERS","STATES","DWELLINGS","CARPENTRY TOOLS","FABRICS"],"trial_type":"item-presentation","trial_index":76,"time_elapsed":768013,"internal_node_id":"0.0-76.0","data_path":"experiments/category_targeting/cuefr.h5","stimuli_path":"experiments/category_targeting/assets/cuefr_pool.txt","category_path":"experiments/category_targeting/assets/cuefr_labels.txt","subjectId":0},{"load_time":780369,"recall_display_time":780369,"category_cue":"","recall_responses":[["p",2596],["e",170],["t",291],["u",298],["i",176],["n",195],["a",130],["ENTER",233]],"recall_words":["petuina"],"recall_word_response_times":[2596],"category_target":0,"category_target_string":"","trial_type":"free-recall","trial_index":77,"time_elapsed":772120,"internal_node_id":"0.0-77.0","data_path":"experiments/category_targeting/cuefr.h5","stimuli_path":"experiments/category_targeting/assets/cuefr_pool.txt","category_path":"experiments/category_targeting/assets/cuefr_labels.txt","subjectId":0},{"load_time":784460,"recall_display_time":784460,"category_cue":"","recall_responses":[["k",1642],["a",448],["backspace",1390],["e",181],["n",184],["s",168],["e",239],["s",190],["ENTER",168],["h",14350],["o",278],["t",177],["e",227],["l",122],["ENTER",231]],"recall_words":["kenses","hotel"],"recall_word_response_times":[1642,14350],"category_target":"","category_target_string":"","trial_type":"free-recall","trial_index":78,"time_elapsed":802137,"internal_node_id":"0.0-78.0","data_path":"experiments/category_targeting/cuefr.h5","stimuli_path":"experiments/category_targeting/assets/cuefr_pool.txt","category_path":"experiments/category_targeting/assets/cuefr_labels.txt","subjectId":0},{"trial_type":"call-function","trial_index":79,"time_elapsed":802137,"internal_node_id":"0.0-79.0","data_path":"experiments/category_targeting/cuefr.h5","stimuli_path":"experiments/category_targeting/assets/cuefr_pool.txt","category_path":"experiments/category_targeting/assets/cuefr_labels.txt","subjectId":0},{"view_history":[{"page_index":0,"viewing_time":4643}],"rt":4643,"trial_index":80,"trial_count":20,"message":"<p >When you're ready for the next trial, press Next.</p>","trial_type":"instructions","time_elapsed":806781,"internal_node_id":"0.0-80.0","data_path":"experiments/category_targeting/cuefr.h5","stimuli_path":"experiments/category_targeting/assets/cuefr_pool.txt","category_path":"experiments/category_targeting/assets/cuefr_labels.txt","subjectId":0},{"trial_type":"call-function","trial_index":81,"time_elapsed":806781,"internal_node_id":"0.0-81.0","data_path":"experiments/category_targeting/cuefr.h5","stimuli_path":"experiments/category_targeting/assets/cuefr_pool.txt","category_path":"experiments/category_targeting/assets/cuefr_labels.txt","subjectId":0},{"load_time":819121,"fixation_display_time":819121,"trial_type":"fixation","trial_index":82,"time_elapsed":807804,"internal_node_id":"0.0-82.0","data_path":"experiments/category_targeting/cuefr.h5","stimuli_path":"experiments/category_targeting/assets/cuefr_pool.txt","category_path":"experiments/category_targeting/assets/cuefr_labels.txt","subjectId":0},{"load_time":820145,"word_display_times":[820145,823174,826180,829202,832224,835239],"word_list":["WOODPECKER","COFFEE","ACCOUNTANT","SCARF","ANGELFISH","LAKE"],"category_list":["BIRDS","BEVERAGES","OCCUPATIONS","CLOTHES","FISH","GEOGRAPHY TERMS"],"trial_type":"item-presentation","trial_index":83,"time_elapsed":825908,"internal_node_id":"0.0-83.0","data_path":"experiments/category_targeting/cuefr.h5","stimuli_path":"experiments/category_targeting/assets/cuefr_pool.txt","category_path":"experiments/category_targeting/assets/cuefr_labels.txt","subjectId":0},{"load_time":838266,"recall_display_time":838266,"category_cue":"FISH","recall_responses":[["a",2012],["n",239],["g",238],["l",317],["e",147],["f",555],["i",266],["s",164],["h",142],["ENTER",238]],"recall_words":["anglefish"],"recall_word_response_times":[2012],"category_target":216,"category_target_string":"ANGELFISH","trial_type":"free-recall","trial_index":84,"time_elapsed":830248,"internal_node_id":"0.0-84.0","data_path":"experiments/category_targeting/cuefr.h5","stimuli_path":"experiments/category_targeting/assets/cuefr_pool.txt","category_path":"experiments/category_targeting/assets/cuefr_labels.txt","subjectId":0},{"load_time":842589,"recall_display_time":842589,"category_cue":"","recall_responses":[["c",599],["o",186],["g",784],["backspace",516],["f",188],["f",202],["e",288],["ENTER",350],["c",1062],["o",325],["f",117],["f",205],["f",173],["backspace",583],["e",186],["e",217],["ENTER",442]],"recall_words":["coffe","coffee"],"recall_word_response_times":[599,1062],"category_target":"","category_target_string":"","trial_type":"free-recall","trial_index":85,"time_elapsed":860254,"internal_node_id":"0.0-85.0","data_path":"experiments/category_targeting/cuefr.h5","stimuli_path":"experiments/category_targeting/assets/cuefr_pool.txt","category_path":"experiments/category_targeting/assets/cuefr_labels.txt","subjectId":0},{"trial_type":"call-function","trial_index":86,"time_elapsed":860255,"internal_node_id":"0.0-86.0","data_path":"experiments/category_targeting/cuefr.h5","stimuli_path":"experiments/category_targeting/assets/cuefr_pool.txt","category_path":"experiments/category_targeting/assets/cuefr_labels.txt","subjectId":0},{"view_history":[{"page_index":0,"viewing_time":5837}],"rt":5837,"trial_index":87,"trial_count":20,"message":"<p >When you're ready for the next trial, press Next.</p>","trial_type":"instructions","time_elapsed":866093,"internal_node_id":"0.0-87.0","data_path":"experiments/category_targeting/cuefr.h5","stimuli_path":"experiments/category_targeting/assets/cuefr_pool.txt","category_path":"experiments/category_targeting/assets/cuefr_labels.txt","subjectId":0},{"trial_type":"call-function","trial_index":88,"time_elapsed":866093,"internal_node_id":"0.0-88.0","data_path":"experiments/category_targeting/cuefr.h5","stimuli_path":"experiments/category_targeting/assets/cuefr_pool.txt","category_path":"experiments/category_targeting/assets/cuefr_labels.txt","subjectId":0},{"load_time":878433,"fixation_display_time":878433,"trial_type":"fixation","trial_index":89,"time_elapsed":867102,"internal_node_id":"0.0-89.0","data_path":"experiments/category_targeting/cuefr.h5","stimuli_path":"experiments/category_targeting/assets/cuefr_pool.txt","category_path":"experiments/category_targeting/assets/cuefr_labels.txt","subjectId":0},{"load_time":879442,"word_display_times":[879442,882462,885479,888500,891511,894516],"word_list":["AQUA","TSUNAMI","TORSO","LIZARD","EGYPT","CROSS COUNTRY"],"category_list":["COLORS","WEATHER TERMS","BODY PARTS","FOUR-FOOTED ANIMALS","COUNTRIES","SPORTS"],"trial_type":"item-presentation","trial_index":90,"time_elapsed":885192,"internal_node_id":"0.0-90.0","data_path":"experiments/category_targeting/cuefr.h5","stimuli_path":"experiments/category_targeting/assets/cuefr_pool.txt","category_path":"experiments/category_targeting/assets/cuefr_labels.txt","subjectId":0},{"load_time":897547,"recall_display_time":897548,"category_cue":"COUNTRIES","recall_responses":[["c",5965],["r",278],["o",650],["s",245],["s",209],[" ",333],["c",179],["o",246],["u",387],["n",286],["t",550],["r",192],["y",213]],"recall_words":["cross country"],"recall_word_response_times":[5965,0],"category_target":149,"category_target_string":"EGYPT","trial_type":"free-recall","trial_index":91,"time_elapsed":895213,"internal_node_id":"0.0-91.0","data_path":"experiments/category_targeting/cuefr.h5","stimuli_path":"experiments/category_targeting/assets/cuefr_pool.txt","category_path":"experiments/category_targeting/assets/cuefr_labels.txt","subjectId":0},{"load_time":907567,"recall_display_time":907567,"category_cue":"","recall_responses":[["ENTER",45],["a",1708],["q",689],["u",264],["a",100],["ENTER",231],["t",540],["s",672],["u",336],["n",213],["a",102],["m",173],["i",233],["ENTER",187],["l",520],["i",268],["z",161],["a",257],["r",651],["d",212],["ENTER",224]],"recall_words":["","aqua","tsunami","lizard"],"recall_word_response_times":[1708,540,520],"category_target":"","category_target_string":"","trial_type":"free-recall","trial_index":92,"time_elapsed":925236,"internal_node_id":"0.0-92.0","data_path":"experiments/category_targeting/cuefr.h5","stimuli_path":"experiments/category_targeting/assets/cuefr_pool.txt","category_path":"experiments/category_targeting/assets/cuefr_labels.txt","subjectId":0},{"trial_type":"call-function","trial_index":93,"time_elapsed":925236,"internal_node_id":"0.0-93.0","data_path":"experiments/category_targeting/cuefr.h5","stimuli_path":"experiments/category_targeting/assets/cuefr_pool.txt","category_path":"experiments/category_targeting/assets/cuefr_labels.txt","subjectId":0},{"view_history":[{"page_index":0,"viewing_time":4340}],"rt":4340,"trial_index":94,"trial_count":20,"message":"<p >When you're ready for the next trial, press Next.</p>","trial_type":"instructions","time_elapsed":929576,"internal_node_id":"0.0-94.0","data_path":"experiments/category_targeting/cuefr.h5","stimuli_path":"experiments/category_targeting/assets/cuefr_pool.txt","category_path":"experiments/category_targeting/assets/cuefr_labels.txt","subjectId":0},{"trial_type":"call-function","trial_index":95,"time_elapsed":929576,"internal_node_id":"0.0-95.0","data_path":"experiments/category_targeting/cuefr.h5","stimuli_path":"experiments/category_targeting/assets/cuefr_pool.txt","category_path":"experiments/category_targeting/assets/cuefr_labels.txt","subjectId":0},{"load_time":941917,"fixation_display_time":941917,"trial_type":"fixation","trial_index":96,"time_elapsed":930589,"internal_node_id":"0.0-96.0","data_path":"experiments/category_targeting/cuefr.h5","stimuli_path":"experiments/category_targeting/assets/cuefr_pool.txt","category_path":"experiments/category_targeting/assets/cuefr_labels.txt","subjectId":0},{"load_time":942929,"word_display_times":[942929,945943,948946,951971,954997,958006],"word_list":["GRAPEFRUIT","GARLIC","HILL","TUGBOAT","LEVEL","LEATHER"],"category_list":["FRUIT","SEASONINGS","GEOGRAPHY TERMS","SHIPS","CARPENTRY TOOLS","FABRICS"],"trial_type":"item-presentation","trial_index":97,"time_elapsed":948676,"internal_node_id":"0.0-97.0","data_path":"experiments/category_targeting/cuefr.h5","stimuli_path":"experiments/category_targeting/assets/cuefr_pool.txt","category_path":"experiments/category_targeting/assets/cuefr_labels.txt","subjectId":0},{"load_time":961034,"recall_display_time":961034,"category_cue":"","recall_responses":[["g",1907],["r",279],["a",715],["p",195],["e",115],["f",1034],["r",367],["u",386],["i",213],["t",238],["ENTER",322]],"recall_words":["grapefruit"],"recall_word_response_times":[1907],"category_target":0,"category_target_string":"","trial_type":"free-recall","trial_index":98,"time_elapsed":954470,"internal_node_id":"0.0-98.0","data_path":"experiments/category_targeting/cuefr.h5","stimuli_path":"experiments/category_targeting/assets/cuefr_pool.txt","category_path":"experiments/category_targeting/assets/cuefr_labels.txt","subjectId":0},{"load_time":966812,"recall_display_time":966812,"category_cue":"","recall_responses":[["t",331],["o",302],["a",300],["b",755],["backspace",1944],["backspace",396],["b",785],["o",353],["a",133],["t",358],["ENTER",578],["h",820],["i",136],["l",219],["l",149],["ENTER",562],["g",9276],["r",240],["a",293],["l",530],["i",334],["c",572],["ENTER",869]],"recall_words":["toboat","hill","gralic"],"recall_word_response_times":[331,820,9276],"category_target":"","category_target_string":"","trial_type":"free-recall","trial_index":99,"time_elapsed":984476,"internal_node_id":"0.0-99.0","data_path":"experiments/category_targeting/cuefr.h5","stimuli_path":"experiments/category_targeting/assets/cuefr_pool.txt","category_path":"experiments/category_targeting/assets/cuefr_labels.txt","subjectId":0},{"trial_type":"call-function","trial_index":100,"time_elapsed":984477,"internal_node_id":"0.0-100.0","data_path":"experiments/category_targeting/cuefr.h5","stimuli_path":"experiments/category_targeting/assets/cuefr_pool.txt","category_path":"experiments/category_targeting/assets/cuefr_labels.txt","subjectId":0},{"view_history":[{"page_index":0,"viewing_time":4001}],"rt":4001,"trial_index":101,"trial_count":20,"message":"<p >When you're ready for the next trial, press Next.</p>","trial_type":"instructions","time_elapsed":988477,"internal_node_id":"0.0-101.0","data_path":"experiments/category_targeting/cuefr.h5","stimuli_path":"experiments/category_targeting/assets/cuefr_pool.txt","category_path":"experiments/category_targeting/assets/cuefr_labels.txt","subjectId":0},{"trial_type":"call-function","trial_index":102,"time_elapsed":988479,"internal_node_id":"0.0-102.0","data_path":"experiments/category_targeting/cuefr.h5","stimuli_path":"experiments/category_targeting/assets/cuefr_pool.txt","category_path":"experiments/category_targeting/assets/cuefr_labels.txt","subjectId":0},{"load_time":1000818,"fixation_display_time":1000818,"trial_type":"fixation","trial_index":103,"time_elapsed":989491,"internal_node_id":"0.0-103.0","data_path":"experiments/category_targeting/cuefr.h5","stimuli_path":"experiments/category_targeting/assets/cuefr_pool.txt","category_path":"experiments/category_targeting/assets/cuefr_labels.txt","subjectId":0},{"load_time":1001832,"word_display_times":[1001832,1004849,1007869,1010883,1013887,1016906],"word_list":["CARPENTER","PEPSI","LETTER","OSTRICH","WISCONSIN","GOLDFISH"],"category_list":["OCCUPATIONS","BEVERAGES","READING MATERIALS","BIRDS","STATES","FISH"],"trial_type":"item-presentation","trial_index":104,"time_elapsed":1007580,"internal_node_id":"0.0-104.0","data_path":"experiments/category_targeting/cuefr.h5","stimuli_path":"experiments/category_targeting/assets/cuefr_pool.txt","category_path":"experiments/category_targeting/assets/cuefr_labels.txt","subjectId":0},{"load_time":1019936,"recall_display_time":1019936,"category_cue":"","recall_responses":[["g",1785],["o",275],["l",220],["d",163],["f",264],["i",342],["s",125],["h",177],["ENTER",373]],"recall_words":["goldfish"],"recall_word_response_times":[1785],"category_target":0,"category_target_string":"","trial_type":"free-recall","trial_index":105,"time_elapsed":1011320,"internal_node_id":"0.0-105.0","data_path":"experiments/category_targeting/cuefr.h5","stimuli_path":"experiments/category_targeting/assets/cuefr_pool.txt","category_path":"experiments/category_targeting/assets/cuefr_labels.txt","subjectId":0},{"load_time":1023661,"recall_display_time":1023661,"category_cue":"","recall_responses":[["p",632],["e",175],["p",270],["p",1327],["e",277],["s",250],["i",160],["ENTER",272],["c",829],["a",274],["r",331],["p",269],["e",123],["n",408],["t",133],["e",255],["r",213],["ENTER",757],["g",3560],["l",154],["o",224],["d",168],["f",782],["i",345],["s",688],["h",628],["ENTER",3535],["w",10195],["i",501],["s",102],["c",250],["o",352],["n",235],["s",113],["o",759],["n",249]],"recall_words":["peppesi","carpenter","glodfish","wisconson"],"recall_word_response_times":[632,829,3560,10195,0],"category_target":"","category_target_string":"","trial_type":"free-recall","trial_index":106,"time_elapsed":1041322,"internal_node_id":"0.0-106.0","data_path":"experiments/category_targeting/cuefr.h5","stimuli_path":"experiments/category_targeting/assets/cuefr_pool.txt","category_path":"experiments/category_targeting/assets/cuefr_labels.txt","subjectId":0},{"trial_type":"call-function","trial_index":107,"time_elapsed":1041322,"internal_node_id":"0.0-107.0","data_path":"experiments/category_targeting/cuefr.h5","stimuli_path":"experiments/category_targeting/assets/cuefr_pool.txt","category_path":"experiments/category_targeting/assets/cuefr_labels.txt","subjectId":0},{"view_history":[{"page_index":0,"viewing_time":1997}],"rt":1997,"trial_index":108,"trial_count":20,"message":"<p >When you're ready for the next trial, press Next.</p>","trial_type":"instructions","time_elapsed":1043320,"internal_node_id":"0.0-108.0","data_path":"experiments/category_targeting/cuefr.h5","stimuli_path":"experiments/category_targeting/assets/cuefr_pool.txt","category_path":"experiments/category_targeting/assets/cuefr_labels.txt","subjectId":0},{"trial_type":"call-function","trial_index":109,"time_elapsed":1043320,"internal_node_id":"0.0-109.0","data_path":"experiments/category_targeting/cuefr.h5","stimuli_path":"experiments/category_targeting/assets/cuefr_pool.txt","category_path":"experiments/category_targeting/assets/cuefr_labels.txt","subjectId":0},{"load_time":1055660,"fixation_display_time":1055660,"trial_type":"fixation","trial_index":110,"time_elapsed":1044329,"internal_node_id":"0.0-110.0","data_path":"experiments/category_targeting/cuefr.h5","stimuli_path":"experiments/category_targeting/assets/cuefr_pool.txt","category_path":"experiments/category_targeting/assets/cuefr_labels.txt","subjectId":0},{"load_time":1056669,"word_display_times":[1056669,1059695,1062702,1065721,1068746,1071770],"word_list":["SANDER","HAMSTER","TRAILER","DODGE","PAJAMAS","MOUTH"],"category_list":["CARPENTRY TOOLS","FOUR-FOOTED ANIMALS","DWELLINGS","CAR MODELS","CLOTHES","BODY PARTS"],"trial_type":"item-presentation","trial_index":111,"time_elapsed":1062454,"internal_node_id":"0.0-111.0","data_path":"experiments/category_targeting/cuefr.h5","stimuli_path":"experiments/category_targeting/assets/cuefr_pool.txt","category_path":"experiments/category_targeting/assets/cuefr_labels.txt","subjectId":0},{"load_time":1074809,"recall_display_time":1074809,"category_cue":"","recall_responses":[["m",1073],["o",301],["u",665],["t",272],["h",248],["ENTER",459]],"recall_words":["mouth"],"recall_word_response_times":[1073],"category_target":0,"category_target_string":"","trial_type":"free-recall","trial_index":112,"time_elapsed":1065489,"internal_node_id":"0.0-112.0","data_path":"experiments/category_targeting/cuefr.h5","stimuli_path":"experiments/category_targeting/assets/cuefr_pool.txt","category_path":"experiments/category_targeting/assets/cuefr_labels.txt","subjectId":0},{"load_time":1077830,"recall_display_time":1077830,"category_cue":"","recall_responses":[["p",898],["a",271],["j",432],["a",126],["m",333],["s",254],["backspace",725],["a",188],["s",267],["ENTER",249],["d",591],["o",837],["u",320],["g",355],["e",330],["backspace",1238],["backspace",276],["backspace",347],["d",278],["g",668],["e",125],["ENTER",211],["h",2687],["a",171],["m",208],["s",105],["t",456],["e",257],["r",213],["ENTER",293]],"recall_words":["pajamas","dodge","hamster"],"recall_word_response_times":[898,591,2687],"category_target":"","category_target_string":"","trial_type":"free-recall","trial_index":113,"time_elapsed":1095490,"internal_node_id":"0.0-113.0","data_path":"experiments/category_targeting/cuefr.h5","stimuli_path":"experiments/category_targeting/assets/cuefr_pool.txt","category_path":"experiments/category_targeting/assets/cuefr_labels.txt","subjectId":0},{"trial_type":"call-function","trial_index":114,"time_elapsed":1095491,"internal_node_id":"0.0-114.0","data_path":"experiments/category_targeting/cuefr.h5","stimuli_path":"experiments/category_targeting/assets/cuefr_pool.txt","category_path":"experiments/category_targeting/assets/cuefr_labels.txt","subjectId":0},{"view_history":[{"page_index":0,"viewing_time":2605}],"rt":2605,"trial_index":115,"trial_count":20,"message":"<p >When you're ready for the next trial, press Next.</p>","trial_type":"instructions","time_elapsed":1098096,"internal_node_id":"0.0-115.0","data_path":"experiments/category_targeting/cuefr.h5","stimuli_path":"experiments/category_targeting/assets/cuefr_pool.txt","category_path":"experiments/category_targeting/assets/cuefr_labels.txt","subjectId":0},{"trial_type":"call-function","trial_index":116,"time_elapsed":1098096,"internal_node_id":"0.0-116.0","data_path":"experiments/category_targeting/cuefr.h5","stimuli_path":"experiments/category_targeting/assets/cuefr_pool.txt","category_path":"experiments/category_targeting/assets/cuefr_labels.txt","subjectId":0},{"load_time":1110436,"fixation_display_time":1110436,"trial_type":"fixation","trial_index":117,"time_elapsed":1099101,"internal_node_id":"0.0-117.0","data_path":"experiments/category_targeting/cuefr.h5","stimuli_path":"experiments/category_targeting/assets/cuefr_pool.txt","category_path":"experiments/category_targeting/assets/cuefr_labels.txt","subjectId":0},{"load_time":1111441,"word_display_times":[1111441,1114446,1117463,1120550,1123557,1126581],"word_list":["APRICOT","JANITOR","SODIUM","BROWN","PICCOLO","RALEIGH"],"category_list":["FRUIT","OCCUPATIONS","ELEMENTS","COLORS","INSTRUMENTS","CITIES"],"trial_type":"item-presentation","trial_index":118,"time_elapsed":1117257,"internal_node_id":"0.0-118.0","data_path":"experiments/category_targeting/cuefr.h5","stimuli_path":"experiments/category_targeting/assets/cuefr_pool.txt","category_path":"experiments/category_targeting/assets/cuefr_labels.txt","subjectId":0},{"load_time":1129612,"recall_display_time":1129612,"category_cue":"","recall_responses":[["r",1646],["a",299],["l",826],["i",219],["g",347],["h",258],["backspace",1075],["backspace",280],["e",653],["h",506],["backspace",934],["g",751],["h",191],["ENTER",696]],"recall_words":["raliegh"],"recall_word_response_times":[1646],"category_target":0,"category_target_string":"","trial_type":"free-recall","trial_index":119,"time_elapsed":1125954,"internal_node_id":"0.0-119.0","data_path":"experiments/category_targeting/cuefr.h5","stimuli_path":"experiments/category_targeting/assets/cuefr_pool.txt","category_path":"experiments/category_targeting/assets/cuefr_labels.txt","subjectId":0},{"load_time":1138295,"recall_display_time":1138296,"category_cue":"","recall_responses":[["a",662],["p",632],["r",436],["i",482],["c",419],["o",443],["t",420],["ENTER",1711],["b",545],["r",266],["o",425],["w",466],["n",435],["ENTER",536],["g",674],["r",272],["e",239],["y",707],["ENTER",407],["c",3030],["o",636],["l",215],["o",231],["r",853],["ENTER",545]],"recall_words":["apricot","brown","grey","color"],"recall_word_response_times":[662,545,674,3030],"category_target":"","category_target_string":"","trial_type":"free-recall","trial_index":120,"time_elapsed":1155967,"internal_node_id":"0.0-120.0","data_path":"experiments/category_targeting/cuefr.h5","stimuli_path":"experiments/category_targeting/assets/cuefr_pool.txt","category_path":"experiments/category_targeting/assets/cuefr_labels.txt","subjectId":0},{"trial_type":"call-function","trial_index":121,"time_elapsed":1155967,"internal_node_id":"0.0-121.0","data_path":"experiments/category_targeting/cuefr.h5","stimuli_path":"experiments/category_targeting/assets/cuefr_pool.txt","category_path":"experiments/category_targeting/assets/cuefr_labels.txt","subjectId":0},{"view_history":[{"page_index":0,"viewing_time":3518}],"rt":3518,"trial_index":122,"trial_count":20,"message":"<p >When you're ready for the next trial, press Next.</p>","trial_type":"instructions","time_elapsed":1159485,"internal_node_id":"0.0-122.0","data_path":"experiments/category_targeting/cuefr.h5","stimuli_path":"experiments/category_targeting/assets/cuefr_pool.txt","category_path":"experiments/category_targeting/assets/cuefr_labels.txt","subjectId":0},{"trial_type":"call-function","trial_index":123,"time_elapsed":1159486,"internal_node_id":"0.0-123.0","data_path":"experiments/category_targeting/cuefr.h5","stimuli_path":"experiments/category_targeting/assets/cuefr_pool.txt","category_path":"experiments/category_targeting/assets/cuefr_labels.txt","subjectId":0},{"load_time":1171826,"fixation_display_time":1171826,"trial_type":"fixation","trial_index":124,"time_elapsed":1160497,"internal_node_id":"0.0-124.0","data_path":"experiments/category_targeting/cuefr.h5","stimuli_path":"experiments/category_targeting/assets/cuefr_pool.txt","category_path":"experiments/category_targeting/assets/cuefr_labels.txt","subjectId":0},{"load_time":1172838,"word_display_times":[1172838,1175852,1178861,1181873,1184886,1187893],"word_list":["RUGBY","RAINBOW TROUT","THUNDER","TOWNHOUSE","TURTLE","VINEGAR"],"category_list":["SPORTS","FISH","WEATHER TERMS","DWELLINGS","FOUR-FOOTED ANIMALS","SEASONINGS"],"trial_type":"item-presentation","trial_index":125,"time_elapsed":1178578,"internal_node_id":"0.0-125.0","data_path":"experiments/category_targeting/cuefr.h5","stimuli_path":"experiments/category_targeting/assets/cuefr_pool.txt","category_path":"experiments/category_targeting/assets/cuefr_labels.txt","subjectId":0},{"load_time":1190932,"recall_display_time":1190932,"category_cue":"WEATHER TERMS","recall_responses":[["r",3455],["a",353],["n",688],["d",190],["backspace",415],["backspace",847],["backspace",376],["backspace",144],["t",348],["h",185],["u",224],["n",223],["d",215],["e",221],["r",179],["ENTER",110]],"recall_words":["thunder"],"recall_word_response_times":[3455],"category_target":511,"category_target_string":"THUNDER","trial_type":"free-recall","trial_index":126,"time_elapsed":1186770,"internal_node_id":"0.0-126.0","data_path":"experiments/category_targeting/cuefr.h5","stimuli_path":"experiments/category_targeting/assets/cuefr_pool.txt","category_path":"experiments/category_targeting/assets/cuefr_labels.txt","subjectId":0},{"load_time":1199112,"recall_display_time":1199112,"category_cue":"","recall_responses":[["r",837],["a",363],["i",226],["n",227],["d",112],["b",484],["o",239],["w",117],["backspace",1546],["backspace",568],["backspace",334],["backspace",765],["b",709],["o",247],["w",153],["ENTER",1667],["r",722],["a",435],["i",982],["n",532],["b",727],["o",322],["r",233],["backspace",387],["w",138],[" ",194],["t",978],["r",213],["u",258],["t",144],["ENTER",206],["v",11737],["i",394],["n",213],["e",218],["g",243],["a",259],["r",287],["ENTER",194]],"recall_words":["rainbow","rainbow trut","vinegar"],"recall_word_response_times":[837,722,11737],"category_target":"","category_target_string":"","trial_type":"free-recall","trial_index":127,"time_elapsed":1216783,"internal_node_id":"0.0-127.0","data_path":"experiments/category_targeting/cuefr.h5","stimuli_path":"experiments/category_targeting/assets/cuefr_pool.txt","category_path":"experiments/category_targeting/assets/cuefr_labels.txt","subjectId":0},{"trial_type":"call-function","trial_index":128,"time_elapsed":1216783,"internal_node_id":"0.0-128.0","data_path":"experiments/category_targeting/cuefr.h5","stimuli_path":"experiments/category_targeting/assets/cuefr_pool.txt","category_path":"experiments/category_targeting/assets/cuefr_labels.txt","subjectId":0},{"view_history":[{"page_index":0,"viewing_time":3580}],"rt":3581,"trial_index":129,"trial_count":20,"message":"<p >When you're ready for the next trial, press Next.</p>","trial_type":"instructions","time_elapsed":1220364,"internal_node_id":"0.0-129.0","data_path":"experiments/category_targeting/cuefr.h5","stimuli_path":"experiments/category_targeting/assets/cuefr_pool.txt","category_path":"experiments/category_targeting/assets/cuefr_labels.txt","subjectId":0},{"trial_type":"call-function","trial_index":130,"time_elapsed":1220365,"internal_node_id":"0.0-130.0","data_path":"experiments/category_targeting/cuefr.h5","stimuli_path":"experiments/category_targeting/assets/cuefr_pool.txt","category_path":"experiments/category_targeting/assets/cuefr_labels.txt","subjectId":0},{"load_time":1232704,"fixation_display_time":1232704,"trial_type":"fixation","trial_index":131,"time_elapsed":1221372,"internal_node_id":"0.0-131.0","data_path":"experiments/category_targeting/cuefr.h5","stimuli_path":"experiments/category_targeting/assets/cuefr_pool.txt","category_path":"experiments/category_targeting/assets/cuefr_labels.txt","subjectId":0},{"load_time":1233712,"word_display_times":[1233712,1236732,1239741,1242763,1245779,1248800],"word_list":["SAN DIEGO","LIPS","STOOL","FISHING BOAT","CHINA","HEMLOCK"],"category_list":["CITIES","BODY PARTS","FURNITURE","SHIPS","COUNTRIES","TREES"],"trial_type":"item-presentation","trial_index":132,"time_elapsed":1239469,"internal_node_id":"0.0-132.0","data_path":"experiments/category_targeting/cuefr.h5","stimuli_path":"experiments/category_targeting/assets/cuefr_pool.txt","category_path":"experiments/category_targeting/assets/cuefr_labels.txt","subjectId":0},{"load_time":1251824,"recall_display_time":1251824,"category_cue":"BODY PARTS","recall_responses":[["f",9091],["i",219],["s",276]],"recall_words":["fis"],"recall_word_response_times":[9091,0],"category_target":32,"category_target_string":"LIPS","trial_type":"free-recall","trial_index":133,"time_elapsed":1249501,"internal_node_id":"0.0-133.0","data_path":"experiments/category_targeting/cuefr.h5","stimuli_path":"experiments/category_targeting/assets/cuefr_pool.txt","category_path":"experiments/category_targeting/assets/cuefr_labels.txt","subjectId":0},{"load_time":1261856,"recall_display_time":1261856,"category_cue":"","recall_responses":[["s",209],["a",260],["n",182],[" ",477],["d",275],["i",229],["e",107],["g",490],["o",78],["ENTER",302],["c",389],["h",233],["i",238],["n",314],["a",136],["ENTER",268],["f",952],["i",233],["s",135],["h",183],["i",257],["n",253],["g",86],["ENTER",224],["t",2581],["r",198],["u",229],["t",146],["ENTER",182]],"recall_words":["san diego","china","fishing","trut"],"recall_word_response_times":[209,389,952,2581],"category_target":"","category_target_string":"","trial_type":"free-recall","trial_index":134,"time_elapsed":1279528,"internal_node_id":"0.0-134.0","data_path":"experiments/category_targeting/cuefr.h5","stimuli_path":"experiments/category_targeting/assets/cuefr_pool.txt","category_path":"experiments/category_targeting/assets/cuefr_labels.txt","subjectId":0},{"trial_type":"call-function","trial_index":135,"time_elapsed":1279528,"internal_node_id":"0.0-135.0","data_path":"experiments/category_targeting/cuefr.h5","stimuli_path":"experiments/category_targeting/assets/cuefr_pool.txt","category_path":"experiments/category_targeting/assets/cuefr_labels.txt","subjectId":0},{"view_history":[{"page_index":0,"viewing_time":1814}],"rt":1814,"trial_index":136,"trial_count":20,"message":"<p >When you're ready for the next trial, press Next.</p>","trial_type":"instructions","time_elapsed":1281343,"internal_node_id":"0.0-136.0","data_path":"experiments/category_targeting/cuefr.h5","stimuli_path":"experiments/category_targeting/assets/cuefr_pool.txt","category_path":"experiments/category_targeting/assets/cuefr_labels.txt","subjectId":0},{"trial_type":"call-function","trial_index":137,"time_elapsed":1281344,"internal_node_id":"0.0-137.0","data_path":"experiments/category_targeting/cuefr.h5","stimuli_path":"experiments/category_targeting/assets/cuefr_pool.txt","category_path":"experiments/category_targeting/assets/cuefr_labels.txt","subjectId":0},{"load_time":1293685,"fixation_display_time":1293685,"trial_type":"fixation","trial_index":138,"time_elapsed":1282359,"internal_node_id":"0.0-138.0","data_path":"experiments/category_targeting/cuefr.h5","stimuli_path":"experiments/category_targeting/assets/cuefr_pool.txt","category_path":"experiments/category_targeting/assets/cuefr_labels.txt","subjectId":0},{"load_time":1294700,"word_display_times":[1294700,1297727,1300734,1303742,1306862,1309871],"word_list":["FLAMINGO","HAIL","IOWA","CENTIPEDE","LEAFLET","SCREW"],"category_list":["BIRDS","WEATHER TERMS","STATES","INSECTS","READING MATERIALS","CARPENTRY TOOLS"],"trial_type":"item-presentation","trial_index":139,"time_elapsed":1300550,"internal_node_id":"0.0-139.0","data_path":"experiments/category_targeting/cuefr.h5","stimuli_path":"experiments/category_targeting/assets/cuefr_pool.txt","category_path":"experiments/category_targeting/assets/cuefr_labels.txt","subjectId":0},{"load_time":1312905,"recall_display_time":1312905,"category_cue":"INSECTS","recall_responses":[["c",1759],["e",229],["n",422],["t",171],["i",250],["p",630],["e",1003],["t",282],["ENTER",218]],"recall_words":["centipet"],"recall_word_response_times":[1759],"category_target":312,"category_target_string":"CENTIPEDE","trial_type":"free-recall","trial_index":140,"time_elapsed":1305531,"internal_node_id":"0.0-140.0","data_path":"experiments/category_targeting/cuefr.h5","stimuli_path":"experiments/category_targeting/assets/cuefr_pool.txt","category_path":"experiments/category_targeting/assets/cuefr_labels.txt","subjectId":0},{"load_time":1317872,"recall_display_time":1317872,"category_cue":"","recall_responses":[["f",4645],["l",258],["a",227],["m",185],["i",242],["n",217],["g",143],["o",520],["ENTER",271]],"recall_words":["flamingo"],"recall_word_response_times":[4645],"category_target":"","category_target_string":"","trial_type":"free-recall","trial_index":141,"time_elapsed":1335536,"internal_node_id":"0.0-141.0","data_path":"experiments/category_targeting/cuefr.h5","stimuli_path":"experiments/category_targeting/assets/cuefr_pool.txt","category_path":"experiments/category_targeting/assets/cuefr_labels.txt","subjectId":0},{"trial_type":"call-function","trial_index":142,"time_elapsed":1335536,"internal_node_id":"0.0-142.0","data_path":"experiments/category_targeting/cuefr.h5","stimuli_path":"experiments/category_targeting/assets/cuefr_pool.txt","category_path":"experiments/category_targeting/assets/cuefr_labels.txt","subjectId":0},{"view_history":[{"page_index":0,"viewing_time":2672}],"rt":2672,"trial_index":143,"trial_count":20,"message":"<p >You have completed the experiment. Thank you for your participation!</p>","trial_type":"instructions","time_elapsed":1338208,"internal_node_id":"0.0-143.0","data_path":"experiments/category_targeting/cuefr.h5","stimuli_path":"experiments/category_targeting/assets/cuefr_pool.txt","category_path":"experiments/category_targeting/assets/cuefr_labels.txt","subjectId":0},{"view_history":[{"page_index":0,"viewing_time":38675}],"rt":38675,"bonus":2.59375,"trial_type":"instructions","trial_index":144,"time_elapsed":1376887,"internal_node_id":"0.0-144.0","data_path":"experiments/category_targeting/cuefr.h5","stimuli_path":"experiments/category_targeting/assets/cuefr_pool.txt","category_path":"experiments/category_targeting/assets/cuefr_labels.txt","subjectId":0}]
