[{"success":true,"rt":121422,"trial_type":"fullscreen","trial_index":0,"time_elapsed":122437,"internal_node_id":"0.0-0.0","data_path":"data/cuefr.h5","stimuli_path":"assets/cuefr_pool.txt","category_path":"assets/cuefr_labels.txt","subjectId":0},{"view_history":[{"page_index":0,"viewing_time":7101},{"page_index":1,"viewing_time":11024},{"page_index":2,"viewing_time":11656},{"page_index":3,"viewing_time":13416},{"page_index":4,"viewing_time":8120},{"page_index":5,"viewing_time":2728},{"page_index":6,"viewing_time":4344}],"rt":58390,"trial_type":"instructions","trial_index":1,"time_elapsed":180830,"internal_node_id":"0.0-1.0","data_path":"data/cuefr.h5","stimuli_path":"assets/cuefr_pool.txt","category_path":"assets/cuefr_labels.txt","subjectId":0},{"view_history":[{"page_index":0,"viewing_time":20296}],"rt":20296,"trial_type":"instructions","trial_index":2,"time_elapsed":201127,"internal_node_id":"0.0-2.0","data_path":"data/cuefr.h5","stimuli_path":"assets/cuefr_pool.txt","category_path":"assets/cuefr_labels.txt","subjectId":0},{"trial_type":"call-function","trial_index":3,"time_elapsed":201127,"internal_node_id":"0.0-3.0","data_path":"data/cuefr.h5","stimuli_path":"assets/cuefr_pool.txt","category_path":"assets/cuefr_labels.txt","subjectId":0},{"trial_type":"call-function","trial_index":4,"time_elapsed":201127,"internal_node_id":"0.0-4.0","data_path":"data/cuefr.h5","stimuli_path":"assets/cuefr_pool.txt","category_path":"assets/cuefr_labels.txt","subjectId":0},{"load_time":203769.80000019073,"fixation_display_time":203769.80000019073,"trial_type":"fixation","trial_index":5,"time_elapsed":202133,"internal_node_id":"0.0-5.0","data_path":"data/cuefr.h5","stimuli_path":"assets/cuefr_pool.txt","category_path":"assets/cuefr_labels.txt","subjectId":0},{"load_time":204776.4000005722,"word_display_times":[204776.4000005722,207790.60000038147,210808.9000005722,213822.5,216840.9000005722,219854.5,222872.9000005722,225886.5,228904.9000005722,231918.5,234936.9000005722,237950.5],"word_list":["BRAZIL\r","AUDI\r","POTASSIUM\r","TUNA\r","TSUNAMI\r","OTTOMAN\r","FINCH\r","WHISK\r","TAMBOURINE\r","PERIODICAL\r","HAMSTER\r","BOXING\r"],"category_list":["COUNTRIES\r","CAR MODELS\r","ELEMENTS\r","FISH\r","WEATHER TERMS\r","FURNITURE\r","BIRDS\r","KITCHEN TOOLS\r","INSTRUMENTS\r","READING MATERIALS\r","FOUR-FOOTED ANIMALS\r","SPORTS\r"],"trial_type":"item-presentation","trial_index":6,"time_elapsed":238329,"internal_node_id":"0.0-6.0","data_path":"data/cuefr.h5","stimuli_path":"assets/cuefr_pool.txt","category_path":"assets/cuefr_labels.txt","subjectId":0},{"load_time":240976.5,"recall_display_time":240977.5,"category_cue":"WEATHER TERMS\r","recall_responses":[["t",3526],["s",200],["u",184],["n",264],["a",96],["m",168],["i",112],["ENTER",1160],["p",1904],["o",200],["t",80],["a",168],["s",72],["s",168],["i",160],["u",80],["m",200],["ENTER",336],["f",2472],["i",112],["n",72],["c",136],["h",120],["ENTER",216],["o",560],["t",96],["t",144],["o",80],["m",176],["a",80],["n",104],["ENTER",432],["b",2912],["r",200],["a",120],["z",232],["i",120],["l",216],["ENTER",968],["w",1840],["h",88],["i",72],["s",120],["k",112],["ENTER",248],["t",7448],["a",168],["m",104],["b",168],["o",176],["u",312],["r",80],["i",120],["n",32],["e",104],["ENTER",240],["h",7264],["a",120],["m",104],["s",96],["t",208],["e",216],["r",80],["ENTER",232],["a",2528],["u",144],["d",88],["i",112],["ENTER",1288],["t",9496],["u",64],["n",176],["a",72],["ENTER",232]],"recall_words":["tsunami","potassium","finch","ottoman","brazil","whisk","tambourine","hamster","audi","tuna"],"recall_word_response_times":[3526,1904,2472,560,2912,1840,7448,7264,2528,9496],"category_target":[513],"category_target_string":"TSUNAMI\r","trial_type":"free-recall","trial_index":7,"time_elapsed":298347,"internal_node_id":"0.0-7.0","data_path":"data/cuefr.h5","stimuli_path":"assets/cuefr_pool.txt","category_path":"assets/cuefr_labels.txt","subjectId":0},{"trial_type":"call-function","trial_index":8,"time_elapsed":298348,"internal_node_id":"0.0-8.0","data_path":"data/cuefr.h5","stimuli_path":"assets/cuefr_pool.txt","category_path":"assets/cuefr_labels.txt","subjectId":0},{"view_history":[{"page_index":0,"viewing_time":58955}],"rt":58955,"trial_index":9,"trial_count":20,"message":"<p >You've completed the practice trial! Please check in with the experimenter before proceeding to the next trial.</p>","trial_type":"instructions","time_elapsed":357307,"internal_node_id":"0.0-9.0","data_path":"data/cuefr.h5","stimuli_path":"assets/cuefr_pool.txt","category_path":"assets/cuefr_labels.txt","subjectId":0},{"trial_type":"call-function","trial_index":10,"time_elapsed":357307,"internal_node_id":"0.0-10.0","data_path":"data/cuefr.h5","stimuli_path":"assets/cuefr_pool.txt","category_path":"assets/cuefr_labels.txt","subjectId":0},{"load_time":359944.4000005722,"fixation_display_time":359944.4000005722,"trial_type":"fixation","trial_index":11,"time_elapsed":358316,"internal_node_id":"0.0-11.0","data_path":"data/cuefr.h5","stimuli_path":"assets/cuefr_pool.txt","category_path":"assets/cuefr_labels.txt","subjectId":0},{"load_time":360954,"word_display_times":[360954,363965.70000076294,366984.9000005722,369998.5,373016.9000005722,376030.80000019073,379049,382062.5,385080.9000005722,388094.5,391112.9000005722,394126.5],"word_list":["ADOBE\r","EGGPLANT\r","BLOUSE\r","CURRY\r","SEQUOIA\r","ENTRANCE\r","FISHING BOAT\r","ACCOUNTANT\r","SPANDEX\r","GRASSHOPPER\r","CHARTREUSE\r","APRICOT\r"],"category_list":["DWELLINGS\r","VEGETABLES\r","CLOTHES\r","SEASONINGS\r","TREES\r","BUILDING PARTS\r","SHIPS\r","OCCUPATIONS\r","FABRICS\r","INSECTS\r","COLORS\r","FRUIT\r"],"trial_type":"item-presentation","trial_index":12,"time_elapsed":394508,"internal_node_id":"0.0-12.0","data_path":"data/cuefr.h5","stimuli_path":"assets/cuefr_pool.txt","category_path":"assets/cuefr_labels.txt","subjectId":0},{"load_time":397150,"recall_display_time":397150.10000038147,"category_cue":"SHIPS\r","recall_responses":[["f",10985],["i",200],["s",64],["h",80],["i",88],["n",88],["g",88],[" ",120],["b",112],["o",104],["a",112],["t",80],["ENTER",128],["e",1872],["g",160],["g",136],["p",216],["l",200],["a",56],["n",112],["t",120],["ENTER",1008],["s",688],["e",160],["q",200],["u",136],["o",216],["i",208],["a",96],["ENTER",424],["b",1784],["l",88],["o",168],["u",88],["s",88],["e",112],["ENTER",128],["c",176],["h",104],["a",96],["r",80],["t",184],["r",192],["e",168],["u",128],["s",80],["e",136],["ENTER",288],["a",4400],["d",152],["o",120],["b",208],["e",256],["ENTER",416],["e",9104],["n",120],["t",64],["r",144],["a",80],["n",88],["c",136],["e",32],["ENTER",136],["s",5184],["p",120],["a",88],["n",80],["d",176],["e",168],["x",184],["ENTER",256]],"recall_words":["fishing boat","eggplant","sequoia","blouse","chartreuse","adobe","entrance","spandex"],"recall_word_response_times":[10985,1872,688,1784,176,4400,9104,5184],"category_target":[409],"category_target_string":"FISHING BOAT\r","trial_type":"free-recall","trial_index":13,"time_elapsed":454527,"internal_node_id":"0.0-13.0","data_path":"data/cuefr.h5","stimuli_path":"assets/cuefr_pool.txt","category_path":"assets/cuefr_labels.txt","subjectId":0},{"trial_type":"call-function","trial_index":14,"time_elapsed":454528,"internal_node_id":"0.0-14.0","data_path":"data/cuefr.h5","stimuli_path":"assets/cuefr_pool.txt","category_path":"assets/cuefr_labels.txt","subjectId":0},{"view_history":[{"page_index":0,"viewing_time":11157}],"rt":11157,"trial_index":15,"trial_count":20,"message":"<p >When you're ready for the next trial, press Next.</p>","trial_type":"instructions","time_elapsed":465686,"internal_node_id":"0.0-15.0","data_path":"data/cuefr.h5","stimuli_path":"assets/cuefr_pool.txt","category_path":"assets/cuefr_labels.txt","subjectId":0},{"trial_type":"call-function","trial_index":16,"time_elapsed":465686,"internal_node_id":"0.0-16.0","data_path":"data/cuefr.h5","stimuli_path":"assets/cuefr_pool.txt","category_path":"assets/cuefr_labels.txt","subjectId":0},{"load_time":468320.10000038147,"fixation_display_time":468320.10000038147,"trial_type":"fixation","trial_index":17,"time_elapsed":466691,"internal_node_id":"0.0-17.0","data_path":"data/cuefr.h5","stimuli_path":"assets/cuefr_pool.txt","category_path":"assets/cuefr_labels.txt","subjectId":0},{"load_time":469325.60000038147,"word_display_times":[469325.60000038147,472345.10000038147,475356.80000019073,478377.10000038147,481388.9000005722,484409.10000038147,487422.4000005722,490441.20000076294,493454.4000005722,496473,499486.30000019073,502505],"word_list":["VISE\r","SLEET\r","LACROSSE\r","LEAD\r","POT\r","VALLEY\r","STOOL\r","FLOUNDER\r","RACCOON\r","TEETH\r","HAWK\r","SUBARU\r"],"category_list":["CARPENTRY TOOLS\r","WEATHER TERMS\r","SPORTS\r","ELEMENTS\r","KITCHEN TOOLS\r","GEOGRAPHY TERMS\r","FURNITURE\r","FISH\r","FOUR-FOOTED ANIMALS\r","BODY PARTS\r","BIRDS\r","CAR MODELS\r"],"trial_type":"item-presentation","trial_index":18,"time_elapsed":502884,"internal_node_id":"0.0-18.0","data_path":"data/cuefr.h5","stimuli_path":"assets/cuefr_pool.txt","category_path":"assets/cuefr_labels.txt","subjectId":0},{"load_time":505523.10000038147,"recall_display_time":505523.10000038147,"category_cue":"","recall_responses":[["f",2548],["l",56],["o",168],["u",72],["n",144],["d",48],["e",200],["r",64],["ENTER",520],["v",328],["i",88],["c",136],["e",80],["ENTER",344],["s",608],["l",88],["e",80],["e",160],["t",88],["ENTER",128],["a",232],["backspace",576],["l",1488],["e",72],["a",144],["d",88],["ENTER",1528],["h",2000],["a",56],["w",192],["k",96],["ENTER",1408],["r",1680],["a",80],["c",152],["c",176],["o",72],["o",152],["n",104],["ENTER",288],["t",192],["e",112],["e",160],["t",96],["h",120],["ENTER",272],["s",2656],["u",128],["b",104],["u",104],["backspace",360],["a",96],["r",72],["u",328],["ENTER",208],["a",27328],["c",216],["c",320],["r",296],["o",64],["backspace",408],["backspace",184],["backspace",544],["backspace",152],["l",168],["a",64],["c",88],["backspace",296],["backspace",160],["backspace",176],["l",176],["a",80],["c",64],["backspace",296],["backspace",152],["backspace",168],["backspace",168],["l",144],["a",88],["c",104],["r",248],["o",120],["s",88],["e",88],["ENTER",416]],"recall_words":["flounder","vice","sleet","lead","hawk","raccoon","teeth","subaru","lacrose"],"recall_word_response_times":[2548,328,608,232,2000,1680,192,2656,27328],"category_target":[0],"trial_type":"free-recall","trial_index":19,"time_elapsed":562899,"internal_node_id":"0.0-19.0","data_path":"data/cuefr.h5","stimuli_path":"assets/cuefr_pool.txt","category_path":"assets/cuefr_labels.txt","subjectId":0},{"trial_type":"call-function","trial_index":20,"time_elapsed":562899,"internal_node_id":"0.0-20.0","data_path":"data/cuefr.h5","stimuli_path":"assets/cuefr_pool.txt","category_path":"assets/cuefr_labels.txt","subjectId":0},{"view_history":[{"page_index":0,"viewing_time":13469}],"rt":13469,"trial_index":21,"trial_count":20,"message":"<p >When you're ready for the next trial, press Next.</p>","trial_type":"instructions","time_elapsed":576369,"internal_node_id":"0.0-21.0","data_path":"data/cuefr.h5","stimuli_path":"assets/cuefr_pool.txt","category_path":"assets/cuefr_labels.txt","subjectId":0},{"trial_type":"call-function","trial_index":22,"time_elapsed":576369,"internal_node_id":"0.0-22.0","data_path":"data/cuefr.h5","stimuli_path":"assets/cuefr_pool.txt","category_path":"assets/cuefr_labels.txt","subjectId":0},{"load_time":579000.1000003815,"fixation_display_time":579000.1000003815,"trial_type":"fixation","trial_index":23,"time_elapsed":577379,"internal_node_id":"0.0-23.0","data_path":"data/cuefr.h5","stimuli_path":"assets/cuefr_pool.txt","category_path":"assets/cuefr_labels.txt","subjectId":0},{"load_time":580010,"word_display_times":[580010,583022.5,586041.1000003815,589054.5,592072.9000005722,595086.5,598105,601118.6000003815,604136.9000005722,607150.8000001907,610168.9000005722,613182.6000003815],"word_list":["TABASCO\r","BUSINESSPERSON\r","HEMLOCK\r","ISRAEL\r","CLARINET\r","STAIRWAY\r","GRAPE\r","BUTTERFLY\r","ENCYCLOPEDIA\r","YACHT\r","SATIN\r","ONION\r"],"category_list":["SEASONINGS\r","OCCUPATIONS\r","TREES\r","COUNTRIES\r","INSTRUMENTS\r","BUILDING PARTS\r","FRUIT\r","INSECTS\r","READING MATERIALS\r","SHIPS\r","FABRICS\r","VEGETABLES\r"],"trial_type":"item-presentation","trial_index":24,"time_elapsed":613589,"internal_node_id":"0.0-24.0","data_path":"data/cuefr.h5","stimuli_path":"assets/cuefr_pool.txt","category_path":"assets/cuefr_labels.txt","subjectId":0},{"load_time":616207.2000007629,"recall_display_time":616207.3000001907,"category_cue":"BUILDING PARTS\r","recall_responses":[["y",16280],["a",2208],["c",128],["h",128],["backspace",448],["t",160],["backspace",256],["c",152],["h",144],["t",104],["ENTER",144],["b",1480],["u",104],["s",104],["i",128],["n",208],["e",80],["s",96],["s",152],["m",88],["a",920],["n",88],["ENTER",1176],["t",616],["a",128],["b",280],["a",160],["s",88],["c",224],["o",112],["ENTER",672],["o",2248],["n",72],["i",136],["o",152],["n",48],["ENTER",272],["b",1320],["u",112],["t",120],["t",128],["e",152],["r",56],["f",192],["l",96],["y",176],["ENTER",272],["h",512],["e",80],["m",112],["l",216],["o",176],["c",112],["k",72],["ENTER",320],["s",2648],["t",144],["a",104],["r",96],["i",104],["w",240],["a",96],["y",120],["ENTER",384],["s",712],["a",176],["t",192],["i",104],["n",72],["ENTER",288],["y",8536],["a",72],["c",104],["h",72],["t",144],["ENTER",320]],"recall_words":["yaccht","businessman","tabasco","onion","butterfly","hemlock","stariway","satin","yacht"],"recall_word_response_times":[16280,1480,616,2248,1320,512,2648,712,8536],"category_target":[56],"category_target_string":"STAIRWAY\r","trial_type":"free-recall","trial_index":25,"time_elapsed":673611,"internal_node_id":"0.0-25.0","data_path":"data/cuefr.h5","stimuli_path":"assets/cuefr_pool.txt","category_path":"assets/cuefr_labels.txt","subjectId":0},{"trial_type":"call-function","trial_index":26,"time_elapsed":673611,"internal_node_id":"0.0-26.0","data_path":"data/cuefr.h5","stimuli_path":"assets/cuefr_pool.txt","category_path":"assets/cuefr_labels.txt","subjectId":0},{"view_history":[{"page_index":0,"viewing_time":9813}],"rt":9814,"trial_index":27,"trial_count":20,"message":"<p >When you're ready for the next trial, press Next.</p>","trial_type":"instructions","time_elapsed":683425,"internal_node_id":"0.0-27.0","data_path":"data/cuefr.h5","stimuli_path":"assets/cuefr_pool.txt","category_path":"assets/cuefr_labels.txt","subjectId":0},{"trial_type":"call-function","trial_index":28,"time_elapsed":683426,"internal_node_id":"0.0-28.0","data_path":"data/cuefr.h5","stimuli_path":"assets/cuefr_pool.txt","category_path":"assets/cuefr_labels.txt","subjectId":0},{"load_time":686032.2000007629,"fixation_display_time":686032.2000007629,"trial_type":"fixation","trial_index":29,"time_elapsed":684432,"internal_node_id":"0.0-29.0","data_path":"data/cuefr.h5","stimuli_path":"assets/cuefr_pool.txt","category_path":"assets/cuefr_labels.txt","subjectId":0},{"load_time":687039.3000001907,"word_display_times":[687039.3000001907,690053.5,693070.5,696088.9000005722,699102.6000003815,702120.9000005722,705134.4000005722,708152.9000005722,711166.4000005722,714184.9000005722,717198.5,720216.9000005722],"word_list":["BOSTON\r","ROLLING PIN\r","TIE\r","CANYON\r","INDIGO\r","COD\r","DRESSER\r","SODIUM\r","SWIMMING\r","MITSUBISHI\r","KNEE\r","CASTLE\r"],"category_list":["CITIES\r","KITCHEN TOOLS\r","CLOTHES\r","GEOGRAPHY TERMS\r","COLORS\r","FISH\r","FURNITURE\r","ELEMENTS\r","SPORTS\r","CAR MODELS\r","BODY PARTS\r","DWELLINGS\r"],"trial_type":"item-presentation","trial_index":30,"time_elapsed":720625,"internal_node_id":"0.0-30.0","data_path":"data/cuefr.h5","stimuli_path":"assets/cuefr_pool.txt","category_path":"assets/cuefr_labels.txt","subjectId":0},{"load_time":723236.9000005722,"recall_display_time":723237.1000003815,"category_cue":"ELEMENTS\r","recall_responses":[["s",1723],["o",112],["d",104],["i",96],["u",64],["m",192],["ENTER",3936],["m",368],["i",176],["t",88],["s",216],["u",160],["b",280],["i",120],["s",104],["h",120],["i",64],["ENTER",344],["i",328],["n",152],["d",96],["i",496],["g",120],["o",96],["ENTER",216],["d",144],["r",168],["e",56],["s",200],["s",176],["e",160],["r",40],["ENTER",96],["t",168],["i",112],["e",96],["ENTER",864],["s",192],["i",104],["w",112],["m",216],["backspace",192],["backspace",160],["backspace",168],["w",48],["i",144],["m",184],["m",136],["i",152],["n",88],["g",72],["ENTER",944],["c",10112],["a",128],["n",80],["y",200],["o",168],["n",64],["ENTER",280],["s",4112],["o",168],["d",144],["i",72],["m",240],["backspace",328],["u",144],["m",192],["ENTER",264],["k",2840],["n",144],["e",88],["e",144],["ENTER",112],["b",5312],["o",96],["s",64],["t",136],["o",72],["n",40],["ENTER",192],["c",13872],["o",40],["d",176],["ENTER",112]],"recall_words":["sodium","mitsubishi","indigo","dresser","tie","swimming","canyon","sodium","knee","boston","cod"],"recall_word_response_times":[1723,368,328,144,168,192,10112,4112,2840,5312,13872],"category_target":[199],"category_target_string":"SODIUM\r","trial_type":"free-recall","trial_index":31,"time_elapsed":780643,"internal_node_id":"0.0-31.0","data_path":"data/cuefr.h5","stimuli_path":"assets/cuefr_pool.txt","category_path":"assets/cuefr_labels.txt","subjectId":0},{"trial_type":"call-function","trial_index":32,"time_elapsed":780644,"internal_node_id":"0.0-32.0","data_path":"data/cuefr.h5","stimuli_path":"assets/cuefr_pool.txt","category_path":"assets/cuefr_labels.txt","subjectId":0},{"view_history":[{"page_index":0,"viewing_time":13272}],"rt":13272,"trial_index":33,"trial_count":20,"message":"<p >When you're ready for the next trial, press Next.</p>","trial_type":"instructions","time_elapsed":793917,"internal_node_id":"0.0-33.0","data_path":"data/cuefr.h5","stimuli_path":"assets/cuefr_pool.txt","category_path":"assets/cuefr_labels.txt","subjectId":0},{"trial_type":"call-function","trial_index":34,"time_elapsed":793917,"internal_node_id":"0.0-34.0","data_path":"data/cuefr.h5","stimuli_path":"assets/cuefr_pool.txt","category_path":"assets/cuefr_labels.txt","subjectId":0},{"load_time":796520.1000003815,"fixation_display_time":796520.1000003815,"trial_type":"fixation","trial_index":35,"time_elapsed":794926,"internal_node_id":"0.0-35.0","data_path":"data/cuefr.h5","stimuli_path":"assets/cuefr_pool.txt","category_path":"assets/cuefr_labels.txt","subjectId":0},{"load_time":797529.8000001907,"word_display_times":[797529.8000001907,800542.4000005722,803561.1000003815,806574.5,809592.9000005722,812606.5,815625,818638.4000005722,821657.1000003815,824670.5,827688.9000005722,830702.4000005722],"word_list":["CASHMERE\r","OKLAHOMA\r","MELON\r","SWEDEN\r","REDWOOD\r","SCHOONER\r","FALCON\r","CYMBAL\r","BATHROOM\r","BASIL\r","TYPHOON\r","CAULIFLOWER\r"],"category_list":["FABRICS\r","STATES\r","FRUIT\r","COUNTRIES\r","TREES\r","SHIPS\r","BIRDS\r","INSTRUMENTS\r","BUILDING PARTS\r","SEASONINGS\r","WEATHER TERMS\r","VEGETABLES\r"],"trial_type":"item-presentation","trial_index":36,"time_elapsed":831119,"internal_node_id":"0.0-36.0","data_path":"data/cuefr.h5","stimuli_path":"assets/cuefr_pool.txt","category_path":"assets/cuefr_labels.txt","subjectId":0},{"load_time":833726.9000005722,"recall_display_time":833727,"category_cue":"SHIPS\r","recall_responses":[["s",1921],["c",136],["h",80],["o",136],["o",136],["n",64],["e",112],["r",48],["ENTER",160],["o",904],["k",144],["l",200],["a",88],["h",232],["o",88],["m",136],["a",128],["ENTER",256],["c",256],["a",136],["s",112],["h",120],["m",216],["e",96],["r",80],["e",112],["ENTER",240],["m",1072],["e",72],["l",144],["o",160],["n",64],["ENTER",528],["b",832],["a",136],["s",96],["i",128],["l",184],["ENTER",1640],["s",1648],["w",200],["e",40],["e",176],["backspace",328],["d",96],["e",160],["n",80],["ENTER",1016],["c",1152],["a",136],["u",128],["l",176],["i",56],["f",120],["l",128],["o",192],["w",64],["e",72],["r",56],["ENTER",168],["t",6512],["y",184],["p",160],["h",184],["o",120],["o",168],["n",96],["ENTER",328],["c",1936],["y",160],["m",184],["b",136],["a",112],["ENTER",560],["c",1160],["y",160],["m",184],["b",112],["a",144],["l",80],["ENTER",200],["b",16328],["a",128],["t",112],["h",104],["r",192],["o",240],["o",128],["m",96],["ENTER",192],["a",11776],["c",208]],"recall_words":["schooner","oklahoma","cashmere","melon","basil","sweden","cauliflower","typhoon","cymba","cymbal","bathroom","ac"],"recall_word_response_times":[1921,904,256,1072,832,1648,1152,6512,1936,1160,16328,11776,0],"category_target":[416],"category_target_string":"SCHOONER\r","trial_type":"free-recall","trial_index":37,"time_elapsed":891137,"internal_node_id":"0.0-37.0","data_path":"data/cuefr.h5","stimuli_path":"assets/cuefr_pool.txt","category_path":"assets/cuefr_labels.txt","subjectId":0},{"trial_type":"call-function","trial_index":38,"time_elapsed":891137,"internal_node_id":"0.0-38.0","data_path":"data/cuefr.h5","stimuli_path":"assets/cuefr_pool.txt","category_path":"assets/cuefr_labels.txt","subjectId":0},{"view_history":[{"page_index":0,"viewing_time":11413}],"rt":11413,"trial_index":39,"trial_count":20,"message":"<p >When you're ready for the next trial, press Next.</p>","trial_type":"instructions","time_elapsed":902552,"internal_node_id":"0.0-39.0","data_path":"data/cuefr.h5","stimuli_path":"assets/cuefr_pool.txt","category_path":"assets/cuefr_labels.txt","subjectId":0},{"trial_type":"call-function","trial_index":40,"time_elapsed":902552,"internal_node_id":"0.0-40.0","data_path":"data/cuefr.h5","stimuli_path":"assets/cuefr_pool.txt","category_path":"assets/cuefr_labels.txt","subjectId":0},{"load_time":905152.1000003815,"fixation_display_time":905152.1000003815,"trial_type":"fixation","trial_index":41,"time_elapsed":903559,"internal_node_id":"0.0-41.0","data_path":"data/cuefr.h5","stimuli_path":"assets/cuefr_pool.txt","category_path":"assets/cuefr_labels.txt","subjectId":0},{"load_time":906159.2000007629,"word_display_times":[906159.2000007629,909177,912190.4000005722,915208.9000005722,918222.6000003815,921241.1000003815,924254.5,927272.9000005722,930286.3000001907,933305,936318.2000007629,939337.1000003815],"word_list":["NAIL GUN\r","SQUIRREL\r","MAGENTA\r","BROCHURE\r","CHEST\r","SHARK\r","SULFUR\r","TRACK\r","JACKET\r","POLICE OFFICER\r","MOTH\r","DESERT\r"],"category_list":["CARPENTRY TOOLS\r","FOUR-FOOTED ANIMALS\r","COLORS\r","READING MATERIALS\r","BODY PARTS\r","FISH\r","ELEMENTS\r","SPORTS\r","CLOTHES\r","OCCUPATIONS\r","INSECTS\r","GEOGRAPHY TERMS\r"],"trial_type":"item-presentation","trial_index":42,"time_elapsed":939752,"internal_node_id":"0.0-42.0","data_path":"data/cuefr.h5","stimuli_path":"assets/cuefr_pool.txt","category_path":"assets/cuefr_labels.txt","subjectId":0},{"load_time":942356.9000005722,"recall_display_time":942356.9000005722,"category_cue":"BODY PARTS\r","recall_responses":[["c",5955],["h",96],["e",88],["s",104],["t",120],["ENTER",208],["m",3240],["a",64],["g",176],["e",120],["n",112],["t",72],["a",128],["ENTER",192],["s",432],["q",240],["u",136],["i",88],["r",136],["r",152],["e",120],["l",136],["ENTER",384],["s",416],["h",72],["a",112],["r",88],["k",56],["ENTER",256],["s",384],["u",120],["l",144],["f",64],["u",424],["r",80],["ENTER",400],["t",176],["r",224],["a",200],["c",136],["k",72],["ENTER",240],["j",232],["a",56],["c",144],["k",88],["e",72],["t",136],["ENTER",136],["p",208],["o",200],["i",120],["c",96],["e",192],["backspace",512],["backspace",168],["l",224],["i",96],["backspace",280],["backspace",168],["backspace",160],["l",176],["i",56],["c",88],["e",32],[" ",152],["o",96],["f",80],["f",272],["i",280],["c",72],["e",144],["r",96],["ENTER",88],["d",256],["e",168],["s",128],["e",128],["r",88],["t",240],["ENTER",416],["b",14168],["r",200],["o",88],["c",128],["h",96],["u",200],["r",88],["e",176],["ENTER",320]],"recall_words":["chest","magenta","squirrel","shark","sulfur","track","jacket","police officer","desert","brochure"],"recall_word_response_times":[5955,3240,432,416,384,176,232,208,256,14168],"category_target":[25],"category_target_string":"CHEST\r","trial_type":"free-recall","trial_index":43,"time_elapsed":999770,"internal_node_id":"0.0-43.0","data_path":"data/cuefr.h5","stimuli_path":"assets/cuefr_pool.txt","category_path":"assets/cuefr_labels.txt","subjectId":0},{"trial_type":"call-function","trial_index":44,"time_elapsed":999770,"internal_node_id":"0.0-44.0","data_path":"data/cuefr.h5","stimuli_path":"assets/cuefr_pool.txt","category_path":"assets/cuefr_labels.txt","subjectId":0},{"view_history":[{"page_index":0,"viewing_time":11656}],"rt":11656,"trial_index":45,"trial_count":20,"message":"<p >When you're ready for the next trial, press Next.</p>","trial_type":"instructions","time_elapsed":1011427,"internal_node_id":"0.0-45.0","data_path":"data/cuefr.h5","stimuli_path":"assets/cuefr_pool.txt","category_path":"assets/cuefr_labels.txt","subjectId":0},{"trial_type":"call-function","trial_index":46,"time_elapsed":1011427,"internal_node_id":"0.0-46.0","data_path":"data/cuefr.h5","stimuli_path":"assets/cuefr_pool.txt","category_path":"assets/cuefr_labels.txt","subjectId":0},{"load_time":1014023.8000001907,"fixation_display_time":1014023.8000001907,"trial_type":"fixation","trial_index":47,"time_elapsed":1012437,"internal_node_id":"0.0-47.0","data_path":"data/cuefr.h5","stimuli_path":"assets/cuefr_pool.txt","category_path":"assets/cuefr_labels.txt","subjectId":0},{"load_time":1015033.8000001907,"word_display_times":[1015033.8000001907,1018044.9000005722,1021065.1000003815,1024078.5,1027097.1000003815,1030110.5,1033124.1000003815,1036141.4000005722,1039160.9000005722,1042174.5,1045193,1048206.5],"word_list":["MIXER\r","OFFICE\r","MONSOON\r","RASPBERRY\r","ROWBOAT\r","HERBS\r","SOUTH AFRICA\r","HARP\r","SOFA\r","SYCAMORE\r","MISSISSIPPI\r","CLOTH\r"],"category_list":["KITCHEN TOOLS\r","BUILDING PARTS\r","WEATHER TERMS\r","FRUIT\r","SHIPS\r","SEASONINGS\r","COUNTRIES\r","INSTRUMENTS\r","FURNITURE\r","TREES\r","STATES\r","FABRICS\r"],"trial_type":"item-presentation","trial_index":48,"time_elapsed":1048630,"internal_node_id":"0.0-48.0","data_path":"data/cuefr.h5","stimuli_path":"assets/cuefr_pool.txt","category_path":"assets/cuefr_labels.txt","subjectId":0},{"load_time":1051230.6000003815,"recall_display_time":1051230.6000003815,"category_cue":"FURNITURE\r","recall_responses":[["s",1577],["o",72],["f",80],["a",96],["ENTER",152],["c",656],["l",56],["o",168],["t",80],["h",64],["ENTER",280],["m",720],["i",152],["x",104],["e",208],["r",72],["ENTER",152],["r",144],["a",152],["s",64],["p",136],["b",320],["e",184],["r",64],["r",144],["y",112],["ENTER",216],["h",320],["e",80],["r",40],["b",216],["s",184],["ENTER",192],["t",2696],["u",136],["s",40],["n",312],["backspace",312],["backspace",176],["backspace",160],["s",96],["u",136],["n",200],["a",272],["m",168],["i",136],["ENTER",992],["o",2872],["f",112],["f",160],["i",96],["c",96],["e",96],["ENTER",336],["h",8360],["a",64],["r",112],["p",168],["ENTER",784],["s",152],["o",152],["u",48],["t",88],["h",120],[" ",136],["a",40],["f",104],["r",208],["i",120],["c",104],["a",104],["ENTER",176],["r",5592],["o",104],["w",272],[" ",168],["b",64],["o",128],["a",96],["t",80],["ENTER",152]],"recall_words":["sofa","cloth","mixer","raspberry","herbs","tsunami","office","harp","south africa","row boat"],"recall_word_response_times":[1577,656,720,144,320,2696,2872,8360,152,5592],"category_target":[290],"category_target_string":"SOFA\r","trial_type":"free-recall","trial_index":49,"time_elapsed":1108648,"internal_node_id":"0.0-49.0","data_path":"data/cuefr.h5","stimuli_path":"assets/cuefr_pool.txt","category_path":"assets/cuefr_labels.txt","subjectId":0},{"trial_type":"call-function","trial_index":50,"time_elapsed":1108648,"internal_node_id":"0.0-50.0","data_path":"data/cuefr.h5","stimuli_path":"assets/cuefr_pool.txt","category_path":"assets/cuefr_labels.txt","subjectId":0},{"view_history":[{"page_index":0,"viewing_time":6053}],"rt":6053,"trial_index":51,"trial_count":20,"message":"<p >When you're ready for the next trial, press Next.</p>","trial_type":"instructions","time_elapsed":1114702,"internal_node_id":"0.0-51.0","data_path":"data/cuefr.h5","stimuli_path":"assets/cuefr_pool.txt","category_path":"assets/cuefr_labels.txt","subjectId":0},{"trial_type":"call-function","trial_index":52,"time_elapsed":1114702,"internal_node_id":"0.0-52.0","data_path":"data/cuefr.h5","stimuli_path":"assets/cuefr_pool.txt","category_path":"assets/cuefr_labels.txt","subjectId":0},{"load_time":1117296.1000003815,"fixation_display_time":1117296.1000003815,"trial_type":"fixation","trial_index":53,"time_elapsed":1115709,"internal_node_id":"0.0-53.0","data_path":"data/cuefr.h5","stimuli_path":"assets/cuefr_pool.txt","category_path":"assets/cuefr_labels.txt","subjectId":0},{"load_time":1118303.3000001907,"word_display_times":[1118303.3000001907,1121321.1000003815,1124334.4000005722,1127352.9000005722,1130360.9000005722,1133374.700000763,1136390.1000003815,1139401.1000003815,1142408.9000005722,1145422.5,1148438,1151449.1000003815],"word_list":["CLIFF\r","TONGUE\r","GREEN BEAN\r","BALTIMORE\r","COW\r","HOTEL\r","RULER\r","CARBON\r","BOWLING\r","ANGELFISH\r","PHYSICAL THERAPIST\r","VEST\r"],"category_list":["GEOGRAPHY TERMS\r","BODY PARTS\r","VEGETABLES\r","CITIES\r","FOUR-FOOTED ANIMALS\r","DWELLINGS\r","CARPENTRY TOOLS\r","ELEMENTS\r","SPORTS\r","FISH\r","OCCUPATIONS\r","CLOTHES\r"],"trial_type":"item-presentation","trial_index":54,"time_elapsed":1151865,"internal_node_id":"0.0-54.0","data_path":"data/cuefr.h5","stimuli_path":"assets/cuefr_pool.txt","category_path":"assets/cuefr_labels.txt","subjectId":0},{"load_time":1154463.200000763,"recall_display_time":1154463.3000001907,"category_cue":"SPORTS\r","recall_responses":[["b",5304],["o",104],["w",528],["l",104],["i",200],["n",88],["g",64],["ENTER",192],["c",688],["l",112],["i",64],["f",112],["f",136],["ENTER",384],["t",328],["o",80],["u",96],["n",136],["g",88],["u",160],["e",88],["ENTER",184],["b",312],["backspace",256],["g",64],["r",184],["e",64],["e",144],["n",104],[" ",176],["b",72],["e",160],["a",120],["n",96],["ENTER",296],["r",360],["u",152],["l",112],["e",120],["r",72],["ENTER",240],["h",304],["o",80],["t",80],["e",72],["l",112],["ENTER",312],["c",1032],["o",80],["w",64],["ENTER",208],["a",1160],["n",112],["g",96],["e",112],["l",80],[" ",136],["f",120],["i",72],["s",88],["h",96],["ENTER",360],["v",2160],["e",152],["s",96],["t",152],["ENTER",304],["b",25016],["o",304],["w",96],["l",152],["i",224],["n",80],["g",56],["ENTER",488]],"recall_words":["bowling","cliff","toungue","green bean","ruler","hotel","cow","angel fish","vest","bowling"],"recall_word_response_times":[5304,688,328,312,360,304,1032,1160,2160,25016],"category_target":[423],"category_target_string":"BOWLING\r","trial_type":"free-recall","trial_index":55,"time_elapsed":1211883,"internal_node_id":"0.0-55.0","data_path":"data/cuefr.h5","stimuli_path":"assets/cuefr_pool.txt","category_path":"assets/cuefr_labels.txt","subjectId":0},{"trial_type":"call-function","trial_index":56,"time_elapsed":1211883,"internal_node_id":"0.0-56.0","data_path":"data/cuefr.h5","stimuli_path":"assets/cuefr_pool.txt","category_path":"assets/cuefr_labels.txt","subjectId":0},{"view_history":[{"page_index":0,"viewing_time":14213}],"rt":14213,"trial_index":57,"trial_count":20,"message":"<p >When you're ready for the next trial, press Next.</p>","trial_type":"instructions","time_elapsed":1226097,"internal_node_id":"0.0-57.0","data_path":"data/cuefr.h5","stimuli_path":"assets/cuefr_pool.txt","category_path":"assets/cuefr_labels.txt","subjectId":0},{"trial_type":"call-function","trial_index":58,"time_elapsed":1226098,"internal_node_id":"0.0-58.0","data_path":"data/cuefr.h5","stimuli_path":"assets/cuefr_pool.txt","category_path":"assets/cuefr_labels.txt","subjectId":0},{"load_time":1228688.1000003815,"fixation_display_time":1228688.1000003815,"trial_type":"fixation","trial_index":59,"time_elapsed":1227104,"internal_node_id":"0.0-59.0","data_path":"data/cuefr.h5","stimuli_path":"assets/cuefr_pool.txt","category_path":"assets/cuefr_labels.txt","subjectId":0},{"load_time":1229695.200000763,"word_display_times":[1229695.200000763,1232713.200000763,1235729.200000763,1238744.9000005722,1241760.3000001907,1244766.5,1247785.1000003815,1250798.5,1253816.9000005722,1256830.6000003815,1259849,1262862.700000763],"word_list":["CEDAR\r","ARGENTINA\r","SPEED BOAT\r","MINNESOTA\r","OBOE\r","SNOW\r","FLEECE\r","HORNET\r","TAN\r","BASEMENT\r","LOVESEAT\r","LIME\r"],"category_list":["TREES\r","COUNTRIES\r","SHIPS\r","STATES\r","INSTRUMENTS\r","WEATHER TERMS\r","FABRICS\r","INSECTS\r","COLORS\r","BUILDING PARTS\r","FURNITURE\r","FRUIT\r"],"trial_type":"item-presentation","trial_index":60,"time_elapsed":1263292,"internal_node_id":"0.0-60.0","data_path":"data/cuefr.h5","stimuli_path":"assets/cuefr_pool.txt","category_path":"assets/cuefr_labels.txt","subjectId":0},{"load_time":1265887,"recall_display_time":1265887.1000003815,"category_cue":"","recall_responses":[["l",1816],["i",176],["m",160],["e",96],["ENTER",216],["l",456],["o",184],["v",80],["e",64],["s",424],["e",80],["a",144],["t",80],["ENTER",184],["b",216],["a",128],["e",176],["s",8],["backspace",544],["backspace",176],["s",24],["e",72],["m",104],["e",128],["n",328],["t",424],["ENTER",136],["o",280],["b",72],["o",160],["e",112],["ENTER",224],["s",240],["p",696],["e",80],["e",152],["d",168],[" ",208],["b",72],["o",96],["a",120],["t",96],["ENTER",264],["a",296],["r",232],["g",200],["e",88],["n",112],["t",104],["i",112],["a",120],["backspace",424],["backspace",192],["i",472],["n",144],["a",104],["ENTER",304],["m",512],["i",160],["n",104],["e",136],["backspace",272],["n",144],["e",112],["s",160],["o",112],["t",160],["a",120],["ENTER",160],["s",376],["n",88],["o",120],["w",32],["ENTER",224],["f",128],["e",232],["backspace",472],["l",256],["e",80],["e",176],["c",184],["e",216],["ENTER",800],["t",4232],["a",136],["n",88],["ENTER",400],["a",1808],["backspace",384],["b",72],["a",88],["s",176],["e",144],["m",224],["e",240],["n",192],["t",88],["ENTER",152],["c",752],["e",56],["d",192],["a",232],["r",56],["ENTER",376],["l",14656],["i",80],["m",160],["e",96],["ENTER",312]],"recall_words":["lime","loveseat","basement","oboe","speed boat","argentina","minnesota","snow","fleece","tan","basement","cedar","lime"],"recall_word_response_times":[1816,456,216,280,240,296,512,376,128,4232,1808,752,14656],"category_target":[0],"trial_type":"free-recall","trial_index":61,"time_elapsed":1323310,"internal_node_id":"0.0-61.0","data_path":"data/cuefr.h5","stimuli_path":"assets/cuefr_pool.txt","category_path":"assets/cuefr_labels.txt","subjectId":0},{"trial_type":"call-function","trial_index":62,"time_elapsed":1323311,"internal_node_id":"0.0-62.0","data_path":"data/cuefr.h5","stimuli_path":"assets/cuefr_pool.txt","category_path":"assets/cuefr_labels.txt","subjectId":0},{"view_history":[{"page_index":0,"viewing_time":17805}],"rt":17805,"trial_index":63,"trial_count":20,"message":"<p >When you're ready for the next trial, press Next.</p>","trial_type":"instructions","time_elapsed":1341117,"internal_node_id":"0.0-63.0","data_path":"data/cuefr.h5","stimuli_path":"assets/cuefr_pool.txt","category_path":"assets/cuefr_labels.txt","subjectId":0},{"trial_type":"call-function","trial_index":64,"time_elapsed":1341117,"internal_node_id":"0.0-64.0","data_path":"data/cuefr.h5","stimuli_path":"assets/cuefr_pool.txt","category_path":"assets/cuefr_labels.txt","subjectId":0},{"load_time":1343704,"fixation_display_time":1343704,"trial_type":"fixation","trial_index":65,"time_elapsed":1342127,"internal_node_id":"0.0-65.0","data_path":"data/cuefr.h5","stimuli_path":"assets/cuefr_pool.txt","category_path":"assets/cuefr_labels.txt","subjectId":0},{"load_time":1344713.8000001907,"word_display_times":[1344713.8000001907,1347726.3000001907,1350745.1000003815,1353758.5,1356777,1359790.5,1362808.9000005722,1365822.4000005722,1368841,1371854.5,1374873,1377881],"word_list":["CUTTING BOARD\r","OSTRICH\r","TOWNHOUSE\r","RACQUETBALL\r","COOK\r","ACURA\r","SEATTLE\r","PLAIN\r","TURNIP\r","COMIC BOOK\r","SANDER\r","MARLIN\r"],"category_list":["KITCHEN TOOLS\r","BIRDS\r","DWELLINGS\r","SPORTS\r","OCCUPATIONS\r","CAR MODELS\r","CITIES\r","GEOGRAPHY TERMS\r","VEGETABLES\r","READING MATERIALS\r","CARPENTRY TOOLS\r","FISH\r"],"trial_type":"item-presentation","trial_index":66,"time_elapsed":1378308,"internal_node_id":"0.0-66.0","data_path":"data/cuefr.h5","stimuli_path":"assets/cuefr_pool.txt","category_path":"assets/cuefr_labels.txt","subjectId":0},{"load_time":1380898.6000003815,"recall_display_time":1380898.700000763,"category_cue":"","recall_responses":[["s",1005],["a",152],["n",288],["d",160],["e",184],["r",72],[" ",128],["ENTER",560],["m",336],["a",88],["r",72],["l",232],["i",288],["n",64],["ENTER",248],["a",256],["c",144],["u",136],["r",112],["a",96],["ENTER",200],["c",856],["u",120],["t",104],["t",112],["i",64],["n",56],["g",80],[" ",120],["b",160],["o",128],["a",120],["r",80],["d",184],["ENTER",360],["c",400],["o",168],["o",152],["k",64],["ENTER",272],["o",272],["s",88],["t",128],["r",176],["i",104],["c",112],["h",112],["ENTER",296],["r",2296],["a",104],["q",192],["u",176],["e",80],["t",112],["b",248],["a",176],["l",152],["l",168],["ENTER",360],["o",2752],["backspace",232],["c",592],["o",104],["m",104],["i",176],["c",96],[" ",144],["b",184],["o",104],["o",160],["k",128],["ENTER",800],["t",224],["o",104],["w",80],["n",112],[" ",408],["h",176],["o",136],["u",88],["s",56],["e",64],["ENTER",136],["s",192],["e",112],["a",128],["t",72],["t",144],["l",136],["e",32],["ENTER",224],["p",1024],["a",120],["backspace",304],["l",216],["a",120],["i",112],["n",64],["ENTER",248]],"recall_words":["sander ","marlin","acura","cutting board","cook","ostrich","raquetball","comic book","town house","seattle","plain"],"recall_word_response_times":[1005,336,256,856,400,272,2296,2752,224,192,1024],"category_target":[0],"trial_type":"free-recall","trial_index":67,"time_elapsed":1438322,"internal_node_id":"0.0-67.0","data_path":"data/cuefr.h5","stimuli_path":"assets/cuefr_pool.txt","category_path":"assets/cuefr_labels.txt","subjectId":0},{"trial_type":"call-function","trial_index":68,"time_elapsed":1438322,"internal_node_id":"0.0-68.0","data_path":"data/cuefr.h5","stimuli_path":"assets/cuefr_pool.txt","category_path":"assets/cuefr_labels.txt","subjectId":0},{"view_history":[{"page_index":0,"viewing_time":9005}],"rt":9005,"trial_index":69,"trial_count":20,"message":"<p >When you're ready for the next trial, press Next.</p>","trial_type":"instructions","time_elapsed":1447328,"internal_node_id":"0.0-69.0","data_path":"data/cuefr.h5","stimuli_path":"assets/cuefr_pool.txt","category_path":"assets/cuefr_labels.txt","subjectId":0},{"trial_type":"call-function","trial_index":70,"time_elapsed":1447328,"internal_node_id":"0.0-70.0","data_path":"data/cuefr.h5","stimuli_path":"assets/cuefr_pool.txt","category_path":"assets/cuefr_labels.txt","subjectId":0},{"load_time":1449911.9000005722,"fixation_display_time":1449911.9000005722,"trial_type":"fixation","trial_index":71,"time_elapsed":1448338,"internal_node_id":"0.0-71.0","data_path":"data/cuefr.h5","stimuli_path":"assets/cuefr_pool.txt","category_path":"assets/cuefr_labels.txt","subjectId":0},{"load_time":1450921.9000005722,"word_display_times":[1450921.9000005722,1453934.3000001907,1456948.1000003815,1459966.5,1462985.1000003815,1465998.6000003815,1469017,1472030.5,1475049,1478062.4000005722,1481081.1000003815,1484094.5],"word_list":["PAPRIKA\r","DEER\r","STAR FRUIT\r","KAYAK\r","BACK\r","BEIGE\r","ELEVATOR\r","EVERGREEN\r","RUSSIA\r","RECLINER\r","NITROGEN\r","WASP\r"],"category_list":["SEASONINGS\r","FOUR-FOOTED ANIMALS\r","FRUIT\r","SHIPS\r","BODY PARTS\r","COLORS\r","BUILDING PARTS\r","TREES\r","COUNTRIES\r","FURNITURE\r","ELEMENTS\r","INSECTS\r"],"trial_type":"item-presentation","trial_index":72,"time_elapsed":1484526,"internal_node_id":"0.0-72.0","data_path":"data/cuefr.h5","stimuli_path":"assets/cuefr_pool.txt","category_path":"assets/cuefr_labels.txt","subjectId":0},{"load_time":1487114,"recall_display_time":1487114.1000003815,"category_cue":"BUILDING PARTS\r","recall_responses":[["e",1717],["l",168],["e",56],["v",192],["a",152],["t",208],["o",168],["r",96],["ENTER",184],["r",168],["e",80],["c",192],["l",120],["i",80],["n",80],["e",112],["r",48],["ENTER",352],["r",704],["u",128],["s",72],["s",136],["i",80],["a",120],["ENTER",168],["p",1904],["a",64],["p",240],["r",128],["i",96],["k",192],["a",88],["ENTER",152],["d",168],["e",200],["e",168],["r",96],["ENTER",584],["s",216],["t",144],["a",176],["r",40],[" ",176],["f",136],["r",184],["u",176],["i",64],["t",80],["ENTER",280],["k",456],["a",88],["y",648],["a",128],["k",128],["ENTER",272],["b",504],["a",152],["c",224],["k",944],["ENTER",608],["e",352],["v",168],["e",152],["r",72],["g",216],["r",200],["e",40],["e",184],["n",168],["ENTER",288],["w",288],["a",120],["s",128],["p",160],["ENTER",1912],["e",3040],["l",104],["e",88],["v",192],["a",184],["t",160],["o",152],["r",120],["ENTER",840],["b",10736],["e",104],["i",176],["g",56],["e",96],["ENTER",200]],"recall_words":["elevator","recliner","russia","paprika","deer","star fruit","kayak","back","evergreen","wasp","elevator","beige"],"recall_word_response_times":[1717,168,704,1904,168,216,456,504,352,288,3040,10736],"category_target":[47],"category_target_string":"ELEVATOR\r","trial_type":"free-recall","trial_index":73,"time_elapsed":1544538,"internal_node_id":"0.0-73.0","data_path":"data/cuefr.h5","stimuli_path":"assets/cuefr_pool.txt","category_path":"assets/cuefr_labels.txt","subjectId":0},{"trial_type":"call-function","trial_index":74,"time_elapsed":1544538,"internal_node_id":"0.0-74.0","data_path":"data/cuefr.h5","stimuli_path":"assets/cuefr_pool.txt","category_path":"assets/cuefr_labels.txt","subjectId":0},{"view_history":[{"page_index":0,"viewing_time":14392}],"rt":14392,"trial_index":75,"trial_count":20,"message":"<p >When you're ready for the next trial, press Next.</p>","trial_type":"instructions","time_elapsed":1558931,"internal_node_id":"0.0-75.0","data_path":"data/cuefr.h5","stimuli_path":"assets/cuefr_pool.txt","category_path":"assets/cuefr_labels.txt","subjectId":0},{"trial_type":"call-function","trial_index":76,"time_elapsed":1558932,"internal_node_id":"0.0-76.0","data_path":"data/cuefr.h5","stimuli_path":"assets/cuefr_pool.txt","category_path":"assets/cuefr_labels.txt","subjectId":0},{"load_time":1561512,"fixation_display_time":1561512,"trial_type":"fixation","trial_index":77,"time_elapsed":1559941,"internal_node_id":"0.0-77.0","data_path":"data/cuefr.h5","stimuli_path":"assets/cuefr_pool.txt","category_path":"assets/cuefr_labels.txt","subjectId":0},{"load_time":1562521.9000005722,"word_display_times":[1562521.9000005722,1565534.5,1568552.6000003815,1571566.5,1574584.9000005722,1577598.6000003815,1580616.9000005722,1583630.5,1586648.9000005722,1589662.5,1592680.8000001907,1595694.700000763],"word_list":["DENTIST\r","NYLON\r","SNAPPER\r","DRESS\r","SEAGULL\r","TROMBONE\r","STREAM\r","ATLANTA\r","RUGBY\r","LADLE\r","HYUNDAI\r","HAIL\r"],"category_list":["OCCUPATIONS\r","FABRICS\r","FISH\r","CLOTHES\r","BIRDS\r","INSTRUMENTS\r","GEOGRAPHY TERMS\r","CITIES\r","SPORTS\r","KITCHEN TOOLS\r","CAR MODELS\r","WEATHER TERMS\r"],"trial_type":"item-presentation","trial_index":78,"time_elapsed":1596134,"internal_node_id":"0.0-78.0","data_path":"data/cuefr.h5","stimuli_path":"assets/cuefr_pool.txt","category_path":"assets/cuefr_labels.txt","subjectId":0},{"load_time":1598719.1000003815,"recall_display_time":1598719.3000001907,"category_cue":"CITIES\r","recall_responses":[["ENTER",23712],["d",1232],["e",192],["n",80],["t",184],["i",144],["s",80],["t",208],["backspace",2560],["backspace",200],["backspace",168],["backspace",176],["backspace",168],["backspace",176],["backspace",176],["a",112],["t",96],["l",328],["a",64],["n",448],["t",144],["a",160],["ENTER",192],["s",1152],["t",152],["r",160],["e",40],["a",112],["m",96],["ENTER",192],["d",232],["e",160],["n",216],["s",96],["backspace",352],["t",72],["i",160],["s",80],["t",152],["ENTER",440],["n",432],["y",248],["l",208],["o",296],["n",104],["ENTER",368],["d",312],["r",240],["e",64],["s",200],["s",152],["ENTER",144],["s",192],["n",120],["a",120],["p",96],["p",160],["e",80],["r",64],["ENTER",160],["s",472],["e",120],["a",136],["g",112],["u",208],["l",184],["l",168],["ENTER",280],["s",192],["t",176],["r",176],["e",40],["a",136],["m",152],["ENTER",432],["o",272],["b",80],["backspace",448],["backspace",176],["t",112],["r",216],["a",112],["backspace",528],["o",192],["m",128],["b",128],["o",128],["n",80],["e",96],["ENTER",680],["r",504],["u",176],["g",488],["y",392],["backspace",456],["n",360],["y",184],["backspace",360],["backspace",176],["b",192],["y",56],["ENTER",280]],"recall_words":["","atlanta","stream","dentist","nylon","dress","snapper","seagull","stream","trombone","rugby"],"recall_word_response_times":[1232,1152,232,432,312,192,472,192,272,504],"category_target":[91],"category_target_string":"ATLANTA\r","trial_type":"free-recall","trial_index":79,"time_elapsed":1656152,"internal_node_id":"0.0-79.0","data_path":"data/cuefr.h5","stimuli_path":"assets/cuefr_pool.txt","category_path":"assets/cuefr_labels.txt","subjectId":0},{"trial_type":"call-function","trial_index":80,"time_elapsed":1656152,"internal_node_id":"0.0-80.0","data_path":"data/cuefr.h5","stimuli_path":"assets/cuefr_pool.txt","category_path":"assets/cuefr_labels.txt","subjectId":0},{"view_history":[{"page_index":0,"viewing_time":17477}],"rt":17477,"trial_index":81,"trial_count":20,"message":"<p >When you're ready for the next trial, press Next.</p>","trial_type":"instructions","time_elapsed":1673631,"internal_node_id":"0.0-81.0","data_path":"data/cuefr.h5","stimuli_path":"assets/cuefr_pool.txt","category_path":"assets/cuefr_labels.txt","subjectId":0},{"trial_type":"call-function","trial_index":82,"time_elapsed":1673631,"internal_node_id":"0.0-82.0","data_path":"data/cuefr.h5","stimuli_path":"assets/cuefr_pool.txt","category_path":"assets/cuefr_labels.txt","subjectId":0},{"load_time":1676208,"fixation_display_time":1676208,"trial_type":"fixation","trial_index":83,"time_elapsed":1674638,"internal_node_id":"0.0-83.0","data_path":"data/cuefr.h5","stimuli_path":"assets/cuefr_pool.txt","category_path":"assets/cuefr_labels.txt","subjectId":0},{"load_time":1677215.200000763,"word_display_times":[1677215.200000763,1680233.1000003815,1683246.5,1686264.9000005722,1689278,1692296.9000005722,1695310.3000001907,1698329,1701342.5,1704360.9000005722,1707374.5,1710392.9000005722],"word_list":["EUCALYPTUS\r","STRAWBERRY\r","ARTICHOKE\r","CHINA\r","BEAR\r","MOTORBOAT\r","HALLWAY\r","BUNGALOW\r","JOURNAL\r","FUCHSIA\r","LIPS\r","END TABLE\r"],"category_list":["TREES\r","FRUIT\r","VEGETABLES\r","COUNTRIES\r","FOUR-FOOTED ANIMALS\r","SHIPS\r","BUILDING PARTS\r","DWELLINGS\r","READING MATERIALS\r","COLORS\r","BODY PARTS\r","FURNITURE\r"],"trial_type":"item-presentation","trial_index":84,"time_elapsed":1710848,"internal_node_id":"0.0-84.0","data_path":"data/cuefr.h5","stimuli_path":"assets/cuefr_pool.txt","category_path":"assets/cuefr_labels.txt","subjectId":0},{"load_time":1713413.200000763,"recall_display_time":1713413.3000001907,"category_cue":"COUNTRIES\r","recall_responses":[["c",1538],["h",144],["i",56],["n",128],["a",72],["ENTER",312],["e",2656],["u",272],["c",168],["a",240],["l",136],["p",272],["y",408],["t",736],["u",192],["s",128],["backspace",1528],["backspace",168],["backspace",168],["backspace",160],["y",160],["p",200],["backspace",280],["backspace",184],["backspace",160],["y",176],["p",200],["t",176],["u",96],["s",256],["ENTER",528],["s",216],["t",168],["r",168],["a",96],["w",176],["b",264],["e",224],["r",216],["r",152],["y",264],["ENTER",800],["a",280],["r",136],["t",280],["i",104],["c",144],["h",144],["o",88],["k",136],["e",120],["ENTER",208],["c",336],["h",104],["i",256],["n",40],["a",136],["ENTER",584],["m",312],["o",72],["t",96],["o",96],["r",120],["b",496],["o",128],["a",88],["t",96],["ENTER",160],["f",752],["u",120],["s",96],["backspace",712],["backspace",176],["backspace",160],["h",160],["a",96],["l",144],["l",144],["w",184],["a",136],["y",104],["ENTER",200],["b",176],["u",120],["n",336],["g",136],["a",136],["l",80],["o",192],["w",88],["ENTER",248],["j",656],["o",320],["u",64],["r",160],["n",176],["a",120],["l",104],["ENTER",232],["e",120],["n",120],["d",88],[" ",144],["t",224],["a",120],["b",160],["l",120],["e",80],["ENTER",168],["f",544],["u",160],["s",96],["c",256],["h",64],["i",72],["a",144],["ENTER",152],["l",312],["i",96],["p",256],["s",112],["ENTER",176],["b",3448],["e",136],["a",112],["r",96],["ENTER",136],["c",21688],["h",144],["i",48],["n",120],["a",40],["ENTER",176]],"recall_words":["china","eucalyptus","strawberry","artichoke","china","motorboat","hallway","bungalow","journal","end table","fuschia","lips","bear","china"],"recall_word_response_times":[1538,2656,216,280,336,312,752,176,656,120,544,312,3448,21688],"category_target":[148],"category_target_string":"CHINA\r","trial_type":"free-recall","trial_index":85,"time_elapsed":1770868,"internal_node_id":"0.0-85.0","data_path":"data/cuefr.h5","stimuli_path":"assets/cuefr_pool.txt","category_path":"assets/cuefr_labels.txt","subjectId":0},{"trial_type":"call-function","trial_index":86,"time_elapsed":1770868,"internal_node_id":"0.0-86.0","data_path":"data/cuefr.h5","stimuli_path":"assets/cuefr_pool.txt","category_path":"assets/cuefr_labels.txt","subjectId":0},{"view_history":[{"page_index":0,"viewing_time":12280}],"rt":12280,"trial_index":87,"trial_count":20,"message":"<p >When you're ready for the next trial, press Next.</p>","trial_type":"instructions","time_elapsed":1783149,"internal_node_id":"0.0-87.0","data_path":"data/cuefr.h5","stimuli_path":"assets/cuefr_pool.txt","category_path":"assets/cuefr_labels.txt","subjectId":0},{"trial_type":"call-function","trial_index":88,"time_elapsed":1783149,"internal_node_id":"0.0-88.0","data_path":"data/cuefr.h5","stimuli_path":"assets/cuefr_pool.txt","category_path":"assets/cuefr_labels.txt","subjectId":0},{"load_time":1785703.9000005722,"fixation_display_time":1785703.9000005722,"trial_type":"fixation","trial_index":89,"time_elapsed":1784154,"internal_node_id":"0.0-89.0","data_path":"data/cuefr.h5","stimuli_path":"assets/cuefr_pool.txt","category_path":"assets/cuefr_labels.txt","subjectId":0},{"load_time":1786708.9000005722,"word_display_times":[1786708.9000005722,1789726.4000005722,1792745,1795756.8000001907,1798766.4000005722,1801785.1000003815,1804798.5,1807816.9000005722,1810830.5,1813848.9000005722,1816862.5,1819880.9000005722],"word_list":["BADMINTON\r","CORVETTE\r","SPIDER\r","PARROT\r","SECRETARY\r","STOVE\r","LOUISIANA\r","CAVE\r","COPPER\r","LINEN\r","LIGHTNING\r","ORLANDO\r"],"category_list":["SPORTS\r","CAR MODELS\r","INSECTS\r","BIRDS\r","OCCUPATIONS\r","KITCHEN TOOLS\r","STATES\r","GEOGRAPHY TERMS\r","ELEMENTS\r","FABRICS\r","WEATHER TERMS\r","CITIES\r"],"trial_type":"item-presentation","trial_index":90,"time_elapsed":1820341,"internal_node_id":"0.0-90.0","data_path":"data/cuefr.h5","stimuli_path":"assets/cuefr_pool.txt","category_path":"assets/cuefr_labels.txt","subjectId":0},{"load_time":1822900.5,"recall_display_time":1822900.6000003815,"category_cue":"","recall_responses":[["b",2219],["a",168],["d",104],["m",192],["i",168],["t",128],["t",136],["o",104],["n",152],["ENTER",984],["l",592],["o",248],["u",168],["i",288],["s",144],["i",184],["a",192],["n",344],["a",168],["ENTER",224],["c",3976],["o",152],["r",96],["v",208],["e",160],["t",192],["t",168],["e",112],["ENTER",168],["s",808],["e",152],["c",200],["r",224],["e",64],["t",200],["a",184],["r",88],["y",656],["ENTER",592],["s",912],["t",176],["o",112],["v",136],["e",120],["ENTER",360],["l",288],["i",192],["n",88],["e",120],["n",72],["ENTER",352],["l",264],["i",104],["g",104],["h",96],["t",520],["n",176],["i",144],["n",72],["g",80],["ENTER",184],["c",424],["a",176],["v",200],["e",184],[" ",184],["c",88],["backspace",456],["backspace",152],["ENTER",320],["c",216],["o",120],["p",192],["p",152],["e",96],["r",80],["ENTER",1496],["b",2136],["a",136],["l",104],["t",112],["i",112],["m",168],["o",112],["r",88],["e",96],["ENTER",920],["p",19840],["a",112],["r",120],["r",216],["o",192],["t",88],["ENTER",144],["s",112],["p",136],["i",192],["d",64],["e",144],["r",88],["ENTER",56]],"recall_words":["badmitton","louisiana","corvette","secretary","stove","linen","lightning","cave","copper","baltimore","parrot","spider"],"recall_word_response_times":[2219,592,3976,808,912,288,264,424,216,2136,19840,112],"category_target":[0],"trial_type":"free-recall","trial_index":91,"time_elapsed":1880359,"internal_node_id":"0.0-91.0","data_path":"data/cuefr.h5","stimuli_path":"assets/cuefr_pool.txt","category_path":"assets/cuefr_labels.txt","subjectId":0},{"trial_type":"call-function","trial_index":92,"time_elapsed":1880359,"internal_node_id":"0.0-92.0","data_path":"data/cuefr.h5","stimuli_path":"assets/cuefr_pool.txt","category_path":"assets/cuefr_labels.txt","subjectId":0},{"view_history":[{"page_index":0,"viewing_time":115104}],"rt":115104,"trial_index":93,"trial_count":20,"message":"<p >When you're ready for the next trial, press Next.</p>","trial_type":"instructions","time_elapsed":1995468,"internal_node_id":"0.0-93.0","data_path":"data/cuefr.h5","stimuli_path":"assets/cuefr_pool.txt","category_path":"assets/cuefr_labels.txt","subjectId":0},{"trial_type":"call-function","trial_index":94,"time_elapsed":1995468,"internal_node_id":"0.0-94.0","data_path":"data/cuefr.h5","stimuli_path":"assets/cuefr_pool.txt","category_path":"assets/cuefr_labels.txt","subjectId":0},{"load_time":1998016.1000003815,"fixation_display_time":1998016.1000003815,"trial_type":"fixation","trial_index":95,"time_elapsed":1996474,"internal_node_id":"0.0-95.0","data_path":"data/cuefr.h5","stimuli_path":"assets/cuefr_pool.txt","category_path":"assets/cuefr_labels.txt","subjectId":0},{"load_time":1999023.1000003815,"word_display_times":[1999023.1000003815,2002041.1000003815,2005054.5,2008072.9000005722,2011086.6000003815,2014104.9000005722,2017118,2020136.8000001907,2023150.5,2026168.9000005722,2029182.5,2032200.9000005722],"word_list":["FRENCH HORN\r","CABINET\r","TIGER\r","WEB SITE\r","CEILING\r","ANKLE\r","PEAR\r","CANOE\r","CABIN\r","T-SHIRT\r","GOLDFISH\r","BLUE SPRUCE\r"],"category_list":["INSTRUMENTS\r","FURNITURE\r","FOUR-FOOTED ANIMALS\r","READING MATERIALS\r","BUILDING PARTS\r","BODY PARTS\r","FRUIT\r","SHIPS\r","DWELLINGS\r","CLOTHES\r","FISH\r","TREES\r"],"trial_type":"item-presentation","trial_index":96,"time_elapsed":2032668,"internal_node_id":"0.0-96.0","data_path":"data/cuefr.h5","stimuli_path":"assets/cuefr_pool.txt","category_path":"assets/cuefr_labels.txt","subjectId":0},{"load_time":2035220.6000003815,"recall_display_time":2035220.700000763,"category_cue":"","recall_responses":[["f",4147],["r",176],["e",80],["n",88],["c",120],["h",112],[" ",176],["h",264],["o",112],["r",88],["n",72],["ENTER",232],["c",208],["a",144],["b",192],["i",112],["n",144],["e",120],["t",160],["ENTER",176],["t",256],["i",112],["g",104],["e",120],["r",464],["ENTER",224],["w",232],["e",184],["b",200],[" ",224],["s",72],["i",136],["t",64],["e",80],["ENTER",368],["c",224],["e",104],["l",160],["i",24],["l",336],["i",16],["n",136],["g",136],["backspace",552],["backspace",168],["backspace",168],["backspace",160],["backspace",168],["backspace",424],["i",1512],["l",192],["i",168],["n",64],["g",96],["ENTER",1008],["c",7016],["a",160],["n",984],["o",200],["e",64],["ENTER",1400],["b",776],["l",424],["u",144],["e",112],[" ",224],["s",120],["p",224],["r",192],["u",240],["c",160],["e",72],["ENTER",136],["g",176],["o",120],["l",184],["d",56],["f",304],["i",120],["s",112],["h",168],["ENTER",704],["c",1056],["a",144],["b",272],["i",232],["n",256],["ENTER",616],["t",776],["s",416],["h",128],["i",152],["backspace",240],["backspace",184],["backspace",176],["s",688],["h",160],["i",64],["r",80],["t",184],["ENTER",192]],"recall_words":["french horn","cabinet","tiger","web site","ceiling","canoe","blue spruce","goldfish","cabin","tshirt"],"recall_word_response_times":[4147,208,256,232,224,7016,776,176,1056,776],"category_target":[0],"trial_type":"free-recall","trial_index":97,"time_elapsed":2092686,"internal_node_id":"0.0-97.0","data_path":"data/cuefr.h5","stimuli_path":"assets/cuefr_pool.txt","category_path":"assets/cuefr_labels.txt","subjectId":0},{"trial_type":"call-function","trial_index":98,"time_elapsed":2092686,"internal_node_id":"0.0-98.0","data_path":"data/cuefr.h5","stimuli_path":"assets/cuefr_pool.txt","category_path":"assets/cuefr_labels.txt","subjectId":0},{"view_history":[{"page_index":0,"viewing_time":21792}],"rt":21792,"trial_index":99,"trial_count":20,"message":"<p >When you're ready for the next trial, press Next.</p>","trial_type":"instructions","time_elapsed":2114479,"internal_node_id":"0.0-99.0","data_path":"data/cuefr.h5","stimuli_path":"assets/cuefr_pool.txt","category_path":"assets/cuefr_labels.txt","subjectId":0},{"trial_type":"call-function","trial_index":100,"time_elapsed":2114480,"internal_node_id":"0.0-100.0","data_path":"data/cuefr.h5","stimuli_path":"assets/cuefr_pool.txt","category_path":"assets/cuefr_labels.txt","subjectId":0},{"load_time":2117024.3000001907,"fixation_display_time":2117024.3000001907,"trial_type":"fixation","trial_index":101,"time_elapsed":2115486,"internal_node_id":"0.0-101.0","data_path":"data/cuefr.h5","stimuli_path":"assets/cuefr_pool.txt","category_path":"assets/cuefr_labels.txt","subjectId":0},{"load_time":2118031.200000763,"word_display_times":[2118031.200000763,2121049.1000003815,2124062.400000572,2127080.900000572,2130093.3000001907,2133112.900000572,2136126.5,2139144.900000572,2142158.400000572,2145177,2148190,2151208.900000572],"word_list":["CROSS COUNTRY\r","SCIENTIST\r","PERU\r","GNAT\r","TONGS\r","BROWN\r","LEVEL\r","BLIZZARD\r","RAVEN\r","LEATHER\r","NEW ORLEANS\r","LAMBORGHINI\r"],"category_list":["SPORTS\r","OCCUPATIONS\r","COUNTRIES\r","INSECTS\r","KITCHEN TOOLS\r","COLORS\r","CARPENTRY TOOLS\r","WEATHER TERMS\r","BIRDS\r","FABRICS\r","CITIES\r","CAR MODELS\r"],"trial_type":"item-presentation","trial_index":102,"time_elapsed":2151679,"internal_node_id":"0.0-102.0","data_path":"data/cuefr.h5","stimuli_path":"assets/cuefr_pool.txt","category_path":"assets/cuefr_labels.txt","subjectId":0},{"load_time":2154228.6000003815,"recall_display_time":2154228.700000763,"category_cue":"","recall_responses":[["c",2403],["r",224],["o",136],["s",96],["s",152],[" ",104],["c",96],["o",112],["u",96],["n",184],["t",72],["r",192],["y",72],["ENTER",256],["s",136],["c",168],["i",72],["e",152],["n",88],["t",1288],["i",192],["s",56],["t",200],["ENTER",152],["p",800],["e",272],["r",112],["u",232],["ENTER",360],["g",520],["n",136],["a",88],["t",152],["s",144],["ENTER",144],["t",352],["o",136],["n",80],["g",80],["s",184],["ENTER",496],["b",1512],["r",208],["o",72],["w",88],["n",112],["ENTER",512],["l",12312],["a",160],["m",152],["b",216],["o",120],["r",296],["u",264],["g",288],["backspace",272],["backspace",176],["backspace",168],["r",824],["g",344],["h",88],["i",200],["n",112],["i",104],["ENTER",264],["b",152],["l",184],["i",64],["z",160],["z",160],["a",232],["r",184],["d",240],["ENTER",1816],["m",816],["o",144],["t",120],["h",104],["backspace",1968],["backspace",200],["backspace",192],["backspace",184],["n",3584],["e",80],["w",88],[" ",136],["o",136],["r",88],["l",136],["e",48],["a",128],["n",96],["s",112],["ENTER",352],["l",6040],["e",64],["v",176],["e",112],["l",80],["ENTER",336]],"recall_words":["cross country","scientist","peru","gnats","tongs","brown","lamborghini","blizzard","new orleans","level"],"recall_word_response_times":[2403,136,800,520,352,1512,12312,152,816,6040],"category_target":[0],"trial_type":"free-recall","trial_index":103,"time_elapsed":2211696,"internal_node_id":"0.0-103.0","data_path":"data/cuefr.h5","stimuli_path":"assets/cuefr_pool.txt","category_path":"assets/cuefr_labels.txt","subjectId":0},{"trial_type":"call-function","trial_index":104,"time_elapsed":2211696,"internal_node_id":"0.0-104.0","data_path":"data/cuefr.h5","stimuli_path":"assets/cuefr_pool.txt","category_path":"assets/cuefr_labels.txt","subjectId":0},{"view_history":[{"page_index":0,"viewing_time":13625}],"rt":13626,"trial_index":105,"trial_count":20,"message":"<p >When you're ready for the next trial, press Next.</p>","trial_type":"instructions","time_elapsed":2225322,"internal_node_id":"0.0-105.0","data_path":"data/cuefr.h5","stimuli_path":"assets/cuefr_pool.txt","category_path":"assets/cuefr_labels.txt","subjectId":0},{"trial_type":"call-function","trial_index":106,"time_elapsed":2225323,"internal_node_id":"0.0-106.0","data_path":"data/cuefr.h5","stimuli_path":"assets/cuefr_pool.txt","category_path":"assets/cuefr_labels.txt","subjectId":0},{"load_time":2227864.200000763,"fixation_display_time":2227864.200000763,"trial_type":"fixation","trial_index":107,"time_elapsed":2226332,"internal_node_id":"0.0-107.0","data_path":"data/cuefr.h5","stimuli_path":"assets/cuefr_pool.txt","category_path":"assets/cuefr_labels.txt","subjectId":0},{"load_time":2228873.8000001907,"word_display_times":[2228873.8000001907,2231886.5,2234905.200000763,2237918.5,2240936.8000001907,2243950.400000572,2246969,2249982.400000572,2253000.1000003815,2256014.400000572,2259032.900000572,2262046.5],"word_list":["LAKE\r","ZINC\r","ROOF\r","ASPARAGUS\r","BULLETIN\r","NIGHTSTAND\r","BIRCH\r","RAFT\r","NECK\r","KIWI\r","HALIBUT\r","CINNAMON\r"],"category_list":["GEOGRAPHY TERMS\r","ELEMENTS\r","BUILDING PARTS\r","VEGETABLES\r","READING MATERIALS\r","FURNITURE\r","TREES\r","SHIPS\r","BODY PARTS\r","FRUIT\r","FISH\r","SEASONINGS\r"],"trial_type":"item-presentation","trial_index":108,"time_elapsed":2262525,"internal_node_id":"0.0-108.0","data_path":"data/cuefr.h5","stimuli_path":"assets/cuefr_pool.txt","category_path":"assets/cuefr_labels.txt","subjectId":0},{"load_time":2265070,"recall_display_time":2265070.200000763,"category_cue":"VEGETABLES\r","recall_responses":[["a",1753],["s",112],["p",160],["a",96],["r",104],["a",136],["g",160],["u",144],["s",72],["ENTER",560],["l",440],["a",96],["k",112],["e",96],["ENTER",864],["r",280],["o",96],["o",152],["f",144],["ENTER",800],["u",584],["backspace",280],["b",40],["u",112],["l",200],["l",144],["e",112],["t",296],["i",88],["n",96],["ENTER",288],["n",280],["i",104],["g",96],["h",88],["t",104],["s",192],["t",168],["a",104],["n",128],["d",104],["ENTER",440],["k",1496],["i",208],["w",80],["i",96],["ENTER",328],["c",960],["i",56],["n",88],["n",152],["a",104],["m",168],["o",136],["n",96],["ENTER",1072],["h",296],["a",72],["l",104],["i",96],["b",152],["u",96],["t",136],["ENTER",336],["r",240],["a",128],["f",184],["t",232],["ENTER",208],["n",240],["e",64],["c",160],["k",64],["ENTER",328]],"recall_words":["asparagus","lake","roof","bulletin","nightstand","kiwi","cinnamon","halibut","raft","neck"],"recall_word_response_times":[1753,440,280,584,280,1496,960,296,240,240],"category_target":[480],"category_target_string":"ASPARAGUS\r","trial_type":"free-recall","trial_index":109,"time_elapsed":2322543,"internal_node_id":"0.0-109.0","data_path":"data/cuefr.h5","stimuli_path":"assets/cuefr_pool.txt","category_path":"assets/cuefr_labels.txt","subjectId":0},{"trial_type":"call-function","trial_index":110,"time_elapsed":2322543,"internal_node_id":"0.0-110.0","data_path":"data/cuefr.h5","stimuli_path":"assets/cuefr_pool.txt","category_path":"assets/cuefr_labels.txt","subjectId":0},{"view_history":[{"page_index":0,"viewing_time":14005}],"rt":14005,"trial_index":111,"trial_count":20,"message":"<p >When you're ready for the next trial, press Next.</p>","trial_type":"instructions","time_elapsed":2336550,"internal_node_id":"0.0-111.0","data_path":"data/cuefr.h5","stimuli_path":"assets/cuefr_pool.txt","category_path":"assets/cuefr_labels.txt","subjectId":0},{"trial_type":"call-function","trial_index":112,"time_elapsed":2336550,"internal_node_id":"0.0-112.0","data_path":"data/cuefr.h5","stimuli_path":"assets/cuefr_pool.txt","category_path":"assets/cuefr_labels.txt","subjectId":0},{"load_time":2339088,"fixation_display_time":2339088,"trial_type":"fixation","trial_index":113,"time_elapsed":2337557,"internal_node_id":"0.0-113.0","data_path":"data/cuefr.h5","stimuli_path":"assets/cuefr_pool.txt","category_path":"assets/cuefr_labels.txt","subjectId":0},{"load_time":2340095.1000003815,"word_display_times":[2340095.1000003815,2343113.1000003815,2346126.5,2349144.900000572,2352158.5,2355176.900000572,2358190.5,2361209,2364222.6000003815,2367241.1000003815,2370254.5,2373273],"word_list":["SANDPAPER\r","SHORTS\r","CLOUDS\r","STUDENT\r","VOLLEYBALL\r","TUBA\r","SKILLET\r","SUEDE\r","DENVER\r","FERRARI\r","AQUA\r","ENGLAND\r"],"category_list":["CARPENTRY TOOLS\r","CLOTHES\r","WEATHER TERMS\r","OCCUPATIONS\r","SPORTS\r","INSTRUMENTS\r","KITCHEN TOOLS\r","FABRICS\r","CITIES\r","CAR MODELS\r","COLORS\r","COUNTRIES\r"],"trial_type":"item-presentation","trial_index":114,"time_elapsed":2373750,"internal_node_id":"0.0-114.0","data_path":"data/cuefr.h5","stimuli_path":"assets/cuefr_pool.txt","category_path":"assets/cuefr_labels.txt","subjectId":0},{"load_time":2376292.5,"recall_display_time":2376292.700000763,"category_cue":"","recall_responses":[["s",2987],["a",120],["n",64],["d",128],["p",288],["a",112],["p",104],["e",104],["r",72],["ENTER",1136],["s",272],["h",112],["o",64],["r",224],["t",256],["s",456],["ENTER",136],["c",264],["l",224],["o",240],["u",64],["d",104],["s",80],["ENTER",1288],["s",288],["t",144],["u",120],["d",80],["e",176],["n",64],["t",120],["ENTER",184],["f",120],["e",168],["r",96],["r",152],["a",128],["r",144],["i",112],["ENTER",744],["s",376],["u",120],["d",96],["e",216],["backspace",256],["backspace",168],["e",32],["d",176],["e",176],["ENTER",208],["a",184],["q",192],["u",160],["a",88],["ENTER",352],["d",2264],["e",160],["n",96],["v",88],["e",176],["r",56],["ENTER",152],["e",152],["n",160],["g",64],["l",144],["a",96],["n",120],["d",80],["ENTER",656],["s",464],["k",80],["i",200],["l",176],["l",128],["e",128],["t",64],["ENTER",376],["v",4400],["o",96],["l",160],["l",152],["e",80],["y",200],["b",232],["a",176],["l",112],["l",144],["ENTER",272],["t",17392],["u",152],["b",56],["a",120],["ENTER",272]],"recall_words":["sandpaper","shorts","clouds","student","ferrari","suede","aqua","denver","england","skillet","volleyball","tuba"],"recall_word_response_times":[2987,272,264,288,120,376,184,2264,152,464,4400,17392],"category_target":[0],"trial_type":"free-recall","trial_index":115,"time_elapsed":2433771,"internal_node_id":"0.0-115.0","data_path":"data/cuefr.h5","stimuli_path":"assets/cuefr_pool.txt","category_path":"assets/cuefr_labels.txt","subjectId":0},{"trial_type":"call-function","trial_index":116,"time_elapsed":2433771,"internal_node_id":"0.0-116.0","data_path":"data/cuefr.h5","stimuli_path":"assets/cuefr_pool.txt","category_path":"assets/cuefr_labels.txt","subjectId":0},{"view_history":[{"page_index":0,"viewing_time":14461}],"rt":14461,"trial_index":117,"trial_count":20,"message":"<p >When you're ready for the next trial, press Next.</p>","trial_type":"instructions","time_elapsed":2448233,"internal_node_id":"0.0-117.0","data_path":"data/cuefr.h5","stimuli_path":"assets/cuefr_pool.txt","category_path":"assets/cuefr_labels.txt","subjectId":0},{"trial_type":"call-function","trial_index":118,"time_elapsed":2448233,"internal_node_id":"0.0-118.0","data_path":"data/cuefr.h5","stimuli_path":"assets/cuefr_pool.txt","category_path":"assets/cuefr_labels.txt","subjectId":0},{"load_time":2450768,"fixation_display_time":2450768,"trial_type":"fixation","trial_index":119,"time_elapsed":2449240,"internal_node_id":"0.0-119.0","data_path":"data/cuefr.h5","stimuli_path":"assets/cuefr_pool.txt","category_path":"assets/cuefr_labels.txt","subjectId":0},{"load_time":2451775.1000003815,"word_display_times":[2451775.1000003815,2454793,2457806.400000572,2460824.900000572,2463838.400000572,2466856.900000572,2469870.5,2472889.1000003815,2475902.400000572,2478921,2481934.6000003815,2484953],"word_list":["TEXTBOOK\r","PLUM\r","MERCURY\r","GLACIER\r","HUMMINGBIRD\r","FOUNDATION\r","BEETS\r","GOAT\r","BEECH\r","CATERPILLAR\r","BLOWFISH\r","STEAMSHIP\r"],"category_list":["READING MATERIALS\r","FRUIT\r","ELEMENTS\r","GEOGRAPHY TERMS\r","BIRDS\r","BUILDING PARTS\r","VEGETABLES\r","FOUR-FOOTED ANIMALS\r","TREES\r","INSECTS\r","FISH\r","SHIPS\r"],"trial_type":"item-presentation","trial_index":120,"time_elapsed":2485433,"internal_node_id":"0.0-120.0","data_path":"data/cuefr.h5","stimuli_path":"assets/cuefr_pool.txt","category_path":"assets/cuefr_labels.txt","subjectId":0},{"load_time":2487972.3000001907,"recall_display_time":2487972.5,"category_cue":"","recall_responses":[["t",2515],["e",88],["x",208],["t",256],["b",248],["o",184],["o",168],["k",80],["ENTER",288],["p",280],["l",256],["u",176],["m",216],["ENTER",224],["b",136],["e",184],["e",168],["t",72],["s",152],["ENTER",136],["g",1744],["o",128],["a",96],["t",104],["ENTER",192],["f",2736],["o",120],["u",64],["n",168],["d",56],["a",112],["t",144],["i",352],["o",40],["n",80],["ENTER",320],["m",360],["e",88],["r",72],["c",208],["u",136],["r",288],["y",128],["ENTER",320],["c",1872],["a",200],["t",216],["e",160],["r",72],["p",152],["i",184],["l",208],["l",128],["a",360],["r",32],["ENTER",192],["h",240],["u",200],["m",192],["m",160],["i",152],["n",88],["g",888],["b",240],["i",136],["r",96],["d",208],["ENTER",136],["b",1416],["l",136],["a",88],["backspace",352],["backspace",176],["backspace",160],["g",96],["a",112],["backspace",304],["l",200],["a",56],["c",176],["i",104],["e",96],["r",104],["ENTER",816],["b",288],["l",104],["o",168],["w",48],["f",184],["i",64],["s",128],["h",88],["ENTER",464],["b",296],["e",176],["e",176],["c",192],["h",120],["ENTER",400],["m",11616],["e",96],["r",64],["c",360],["u",160],["r",80],["y",216],["ENTER",488]],"recall_words":["textbook","plum","beets","goat","foundation","mercury","caterpillar","hummingbird","glacier","blowfish","beech","mercury"],"recall_word_response_times":[2515,280,136,1744,2736,360,1872,240,1416,288,296,11616],"category_target":[0],"trial_type":"free-recall","trial_index":121,"time_elapsed":2545451,"internal_node_id":"0.0-121.0","data_path":"data/cuefr.h5","stimuli_path":"assets/cuefr_pool.txt","category_path":"assets/cuefr_labels.txt","subjectId":0},{"trial_type":"call-function","trial_index":122,"time_elapsed":2545451,"internal_node_id":"0.0-122.0","data_path":"data/cuefr.h5","stimuli_path":"assets/cuefr_pool.txt","category_path":"assets/cuefr_labels.txt","subjectId":0},{"view_history":[{"page_index":0,"viewing_time":3496}],"rt":3496,"trial_index":123,"trial_count":20,"message":"<p >You have completed the experiment. Thank you for your participation!</p>","trial_type":"instructions","time_elapsed":2548948,"internal_node_id":"0.0-123.0","data_path":"data/cuefr.h5","stimuli_path":"assets/cuefr_pool.txt","category_path":"assets/cuefr_labels.txt","subjectId":0},{"view_history":[{"page_index":0,"viewing_time":7863415}],"rt":7863415,"bonus":10,"trial_type":"instructions","trial_index":124,"time_elapsed":10412754,"internal_node_id":"0.0-124.0","data_path":"data/cuefr.h5","stimuli_path":"assets/cuefr_pool.txt","category_path":"assets/cuefr_labels.txt","subjectId":0}]
